Data from 20171114-ORNL-Ar_H_NY_Subt18_08-03-11-835.txt Node
Date: Tue Nov 14 08:03:11 EST 2017
User: Ender
Spectrometer: HR+D1039
Trigger mode: 0
Integration Time (sec): 2.730000E-2
Scans to average: 10
Electric dark correction enabled: true
Nonlinearity correction enabled: false
Boxcar width: 0
XAxis mode: Wavelengths
Number of Pixels in Spectrum: 2048
>>>>>Begin Spectral Data<<<<<
187.836	-4.18
188.309	-4.18
188.782	-4.18
189.255	-1.08
189.728	-3.68
190.201	5.52
190.674	-2.68
191.147	3.02
191.619	-5.08
192.092	1.32
192.565	2.92
193.038	1.72
193.511	1.82
193.984	2.42
194.456	0.32
194.929	0.32
195.402	-5.58
195.874	2.92
196.347	-1.98
196.82	-7.28
197.292	8.32
197.765	1.52
198.237	-6.08
198.71	6.52
199.182	-0.98
199.655	-1.88
200.127	4.52
200.6	-2.78
201.072	1.42
201.544	-4.68
202.017	-4.28
202.489	4.82
202.961	0.02
203.433	-7.78
203.906	-5.98
204.378	-5.98
204.85	-2.68
205.322	-6.98
205.794	-1.58
206.266	3.12
206.739	-8.58
207.211	3.32
207.683	-3.58
208.155	-3.88
208.627	-13.08
209.099	-2.18
209.57	-11.28
210.042	-2.68
210.514	1.72
210.986	-2.78
211.458	-6.28
211.93	-0.08
212.402	2.82
212.873	-0.28
213.345	-7.48
213.817	-12.28
214.288	-2.68
214.76	-12.38
215.232	-0.98
215.703	-5.18
216.175	-1.68
216.646	-5.18
217.118	-6.98
217.589	0.62
218.061	-3.88
218.532	-4.68
219.004	-0.88
219.475	-0.18
219.946	-5.68
220.418	-4.68
220.889	1.32
221.36	-5.28
221.832	-3.98
222.303	-2.98
222.774	-0.78
223.245	-7.28
223.717	-8.88
224.188	-6.78
224.659	0.62
225.13	0.62
225.601	-2.98
226.072	5.42
226.543	-5.28
227.014	0.52
227.485	-6.18
227.956	-8.18
228.427	-2.48
228.898	-2.68
229.369	0.62
229.839	-9.88
230.31	-11.18
230.781	-2.18
231.252	-4.68
231.722	-9.88
232.193	-6.28
232.664	-8.58
233.135	-7.38
233.605	-3.68
234.076	-5.78
234.546	-0.98
235.017	0.52
235.487	-1.28
235.958	-7.48
236.428	-5.18
236.899	-4.18
237.369	-2.08
237.84	-4.98
238.31	1.82
238.78	-4.48
239.251	-6.68
239.721	-7.08
240.191	-13.08
240.662	-0.68
241.132	-6.78
241.602	-4.28
242.072	-4.18
242.542	1.42
243.013	-2.08
243.483	-3.98
243.953	-2.78
244.423	-5.78
244.893	-6.98
245.363	1.42
245.833	-6.88
246.303	-8.48
246.773	-1.78
247.243	-7.38
247.712	-11.08
248.182	4.22
248.652	-4.78
249.122	-8.78
249.592	-3.38
250.061	-3.38
250.531	2.52
251.001	-7.48
251.471	-2.38
251.94	2.92
252.41	-6.68
252.879	-8.88
253.349	4.72
253.818	0.92
254.288	-5.78
254.757	-4.98
255.227	-7.18
255.696	-9.88
256.166	-4.28
256.635	-1.68
257.105	-0.28
257.574	-7.18
258.043	-5.68
258.513	-10.28
258.982	-6.38
259.451	-12.08
259.92	-6.08
260.389	-2.58
260.859	1.32
261.328	-4.78
261.797	-2.28
262.266	-3.28
262.735	0.22
263.204	0.62
263.673	-4.08
264.142	-6.08
264.611	-12.68
265.08	-5.08
265.549	-14.08
266.018	2.42
266.487	-9.08
266.955	-9.38
267.424	-7.08
267.893	-5.18
268.362	-7.68
268.83	-2.18
269.299	1.52
269.768	-6.88
270.236	-3.98
270.705	-9.58
271.174	-7.18
271.642	-6.28
272.111	-5.68
272.579	-12.58
273.048	-6.38
273.516	-5.38
273.985	-6.48
274.453	-0.78
274.922	-0.68
275.39	-1.58
275.858	-12.88
276.327	-1.98
276.795	3.42
277.263	-8.28
277.731	-0.78
278.2	-7.68
278.668	-2.98
279.136	1.12
279.604	-4.28
280.072	-4.18
280.54	-0.38
281.008	-6.78
281.477	1.02
281.945	0.72
282.413	-2.68
282.881	-4.38
283.348	-9.08
283.816	-1.28
284.284	-1.28
284.752	6.12
285.22	-5.38
285.688	-4.08
286.156	-4.88
286.623	1.72
287.091	-6.08
287.559	-3.58
288.026	-2.08
288.494	-1.58
288.962	-11.58
289.429	-10.78
289.897	0.52
290.364	-4.88
290.832	2.62
291.3	-2.68
291.767	-2.08
292.234	-1.08
292.702	-4.48
293.169	-4.38
293.637	0.32
294.104	-3.78
294.571	-14.48
295.039	-6.78
295.506	-7.48
295.973	-4.48
296.44	-7.58
296.908	-3.58
297.375	-1.68
297.842	-8.88
298.309	-9.48
298.776	-9.98
299.243	-2.78
299.71	-7.68
300.177	-2.28
300.644	-3.08
301.111	-2.58
301.578	-1.58
302.045	-12.48
302.512	-7.88
302.979	-1.08
303.446	-2.38
303.913	-9.28
304.379	-6.68
304.846	-2.08
305.313	0.52
305.78	-1.38
306.246	-3.68
306.713	-1.48
307.18	-5.08
307.646	-6.98
308.113	-4.38
308.579	-6.28
309.046	-5.18
309.512	0.12
309.979	-8.68
310.445	-2.58
310.912	1.72
311.378	4.72
311.845	-8.28
312.311	3.12
312.777	-2.88
313.244	-5.28
313.71	6.02
314.176	-2.08
314.642	-0.98
315.109	-11.18
315.575	1.52
316.041	4.92
316.507	-5.88
316.973	-4.18
317.439	-2.98
317.905	0.42
318.371	-2.28
318.837	-2.08
319.303	-4.98
319.769	-8.68
320.235	-6.38
320.701	-5.58
321.167	2.42
321.633	-9.78
322.099	-1.88
322.564	-2.88
323.03	-2.88
323.496	-6.38
323.962	-10.18
324.427	-3.58
324.893	-1.08
325.359	-6.98
325.824	-10.78
326.29	-3.38
326.755	-7.78
327.221	-5.78
327.686	-6.88
328.152	-4.28
328.617	-6.38
329.083	-0.18
329.548	0.12
330.014	0.22
330.479	-6.98
330.944	-1.28
331.41	-0.98
331.875	-1.08
332.34	-7.48
332.805	-8.78
333.271	-4.98
333.736	-8.38
334.201	0.12
334.666	2.52
335.131	0.72
335.596	3.02
336.061	2.22
336.526	-10.18
336.991	-3.18
337.456	5.02
337.921	-2.68
338.386	-8.08
338.851	-8.08
339.316	1.62
339.781	-3.08
340.246	2.22
340.711	-7.28
341.175	-1.98
341.64	-8.68
342.105	-3.98
342.569	-0.68
343.034	1.22
343.499	-8.18
343.963	-7.88
344.428	-3.88
344.893	-0.38
345.357	-7.08
345.822	-7.28
346.286	-2.68
346.751	-2.28
347.215	-0.18
347.679	-6.98
348.144	-3.98
348.608	-0.88
349.073	-4.38
349.537	-2.68
350.001	-10.68
350.465	3.02
350.93	-0.28
351.394	4.12
351.858	-4.58
352.322	6.22
352.786	-10.78
353.25	-2.08
353.715	4.52
354.179	-4.28
354.643	0.92
355.107	-2.38
355.571	0.32
356.035	-0.28
356.498	-3.58
356.962	-8.48
357.426	2.62
357.89	-1.38
358.354	1.02
358.818	0.92
359.281	0.62
359.745	-6.78
360.209	-2.98
360.673	-13.98
361.136	-0.08
361.6	0.02
362.064	-0.18
362.527	-6.98
362.991	6.02
363.454	-6.88
363.918	-10.78
364.381	-14.08
364.845	-5.08
365.308	-3.18
365.772	2.52
366.235	-6.58
366.698	-8.58
367.162	-0.78
367.625	-4.48
368.088	-0.98
368.552	0.82
369.015	-1.98
369.478	3.02
369.941	5.82
370.404	-9.08
370.867	-2.48
371.331	-1.08
371.794	-3.98
372.257	-6.98
372.72	1.32
373.183	-0.98
373.646	-4.28
374.109	-7.98
374.572	-3.38
375.035	-10.48
375.497	-10.48
375.96	-0.48
376.423	-6.18
376.886	-3.78
377.349	-2.18
377.811	0.92
378.274	-8.18
378.737	-3.18
379.199	-3.38
379.662	-10.08
380.125	2.02
380.587	-6.28
381.05	-9.18
381.512	-6.28
381.975	0.32
382.437	-4.68
382.9	-5.48
383.362	1.12
383.825	-3.08
384.287	-1.08
384.75	-5.68
385.212	-1.88
385.674	1.52
386.136	-1.58
386.599	-5.58
387.061	-1.58
387.523	-1.08
387.985	-0.08
388.447	3.42
388.91	-5.08
389.372	-5.28
389.834	-2.88
390.296	-4.38
390.758	-1.38
391.22	0.02
391.682	-0.78
392.144	3.72
392.606	4.32
393.068	-1.68
393.529	-0.58
393.991	3.22
394.453	-10.08
394.915	-5.58
395.377	-4.08
395.838	-0.38
396.3	-0.78
396.762	2.52
397.224	-7.48
397.685	1.02
398.147	-5.08
398.608	-1.58
399.07	-8.28
399.531	-9.18
399.993	-2.18
400.454	-0.78
400.916	-5.58
401.377	-6.18
401.839	-4.38
402.3	-12.58
402.762	-0.78
403.223	0.62
403.684	-2.88
404.145	-3.18
404.607	-6.18
405.068	1.12
405.529	-8.48
405.99	-0.38
406.451	-8.38
406.913	-7.08
407.374	-10.88
407.835	-3.08
408.296	-5.48
408.757	-3.08
409.218	-1.78
409.679	-5.68
410.14	-1.58
410.601	1.52
411.062	-1.78
411.522	-1.28
411.983	-4.18
412.444	-15.48
412.905	0.02
413.366	-1.88
413.826	-2.08
414.287	-8.78
414.748	-4.58
415.208	-7.68
415.669	-1.18
416.13	3.52
416.59	-4.18
417.051	1.72
417.511	-2.78
417.972	-0.78
418.432	-6.88
418.893	1.92
419.353	-2.78
419.814	2.52
420.274	-4.78
420.734	-5.78
421.195	-6.78
421.655	-9.68
422.115	-6.28
422.576	-3.68
423.036	-1.08
423.496	-2.38
423.956	-2.68
424.416	-2.68
424.876	0.82
425.336	-3.78
425.797	-0.38
426.257	-3.98
426.717	-5.78
427.177	6.82
427.637	-6.78
428.097	-4.48
428.556	-10.48
429.016	-5.68
429.476	-17.28
429.936	-6.18
430.396	-4.88
430.856	1.42
431.315	2.12
431.775	-8.68
432.235	-2.58
432.694	-14.38
433.154	0.62
433.614	-1.78
434.073	-9.28
434.533	-6.08
434.993	-7.98
435.452	-3.38
435.912	0.02
436.371	-3.08
436.83	-9.88
437.29	1.42
437.749	-8.28
438.209	-8.88
438.668	-4.78
439.127	3.02
439.587	-3.08
440.046	-7.88
440.505	-5.88
440.964	-4.78
441.424	-5.78
441.883	-7.88
442.342	2.82
442.801	-3.38
443.26	-10.28
443.719	-2.08
444.178	1.82
444.637	-16.48
445.096	-6.28
445.555	-2.38
446.014	-0.78
446.473	3.32
446.932	-3.48
447.391	-4.38
447.849	-1.48
448.308	-4.58
448.767	-11.18
449.226	-4.38
449.685	-3.18
450.143	2.72
450.602	-5.18
451.061	-8.98
451.519	-7.78
451.978	-7.48
452.436	-2.58
452.895	-0.28
453.353	0.52
453.812	2.72
454.27	-5.88
454.729	2.32
455.187	-5.08
455.646	-1.88
456.104	-9.08
456.562	-0.18
457.021	-3.78
457.479	-3.18
457.937	-8.38
458.395	-4.18
458.854	-12.98
459.312	-11.18
459.77	-9.58
460.228	-8.08
460.686	-3.68
461.144	-0.58
461.602	1.32
462.06	-4.58
462.518	-3.78
462.976	1.42
463.434	-5.88
463.892	-3.78
464.35	-8.38
464.808	-0.68
465.266	-9.78
465.724	-1.38
466.181	0.62
466.639	0.12
467.097	3.52
467.555	-1.68
468.012	-1.28
468.47	-1.18
468.928	4.62
469.385	-0.48
469.843	1.32
470.3	2.92
470.758	-0.28
471.215	-7.18
471.673	0.52
472.13	-11.68
472.588	-3.48
473.045	-8.18
473.503	-2.08
473.96	-2.78
474.417	-6.78
474.875	-3.08
475.332	0.92
475.789	-0.08
476.246	-0.88
476.704	-1.68
477.161	-7.38
477.618	-8.98
478.075	-2.98
478.532	0.62
478.989	-7.78
479.446	-4.58
479.903	-0.08
480.36	-0.88
480.817	-12.28
481.274	0.52
481.731	-3.78
482.188	-8.18
482.645	2.72
483.102	-5.48
483.558	-6.48
484.015	-6.08
484.472	0.42
484.929	-2.58
485.385	-1.48
485.842	-4.38
486.299	-8.48
486.755	-6.38
487.212	-1.98
487.668	-7.08
488.125	0.02
488.582	-0.78
489.038	-1.08
489.494	-6.18
489.951	-3.78
490.407	-6.08
490.864	-5.08
491.32	2.22
491.776	0.62
492.233	-0.38
492.689	-6.58
493.145	-4.08
493.602	-2.88
494.058	2.92
494.514	-8.18
494.97	-0.48
495.426	-8.68
495.882	-7.58
496.338	-7.28
496.794	-1.38
497.251	-4.28
497.707	-3.18
498.163	-0.38
498.618	-1.18
499.074	-2.68
499.53	-1.08
499.986	-3.48
500.442	-2.98
500.898	-5.58
501.354	-14.48
501.809	-1.58
502.265	-9.78
502.721	-1.18
503.177	3.22
503.632	1.02
504.088	-5.38
504.543	-3.98
504.999	-2.98
505.455	-5.58
505.91	-9.38
506.366	-6.48
506.821	-8.68
507.277	-9.88
507.732	-7.48
508.187	-4.78
508.643	-2.38
509.098	-6.48
509.553	4.72
510.009	0.52
510.464	-7.38
510.919	4.82
511.375	-6.78
511.83	-1.58
512.285	-8.28
512.74	-0.88
513.195	2.22
513.65	-2.28
514.105	-2.48
514.56	-2.08
515.015	-1.48
515.47	5.52
515.925	1.22
516.38	-3.58
516.835	7.02
517.29	-4.38
517.745	-2.18
518.2	-5.48
518.655	-6.68
519.109	-2.98
519.564	2.12
520.019	-4.48
520.474	-6.78
520.928	-3.38
521.383	-9.38
521.838	-13.78
522.292	-0.78
522.747	-2.68
523.201	3.92
523.656	-5.38
524.11	4.12
524.565	0.82
525.019	0.22
525.474	-0.28
525.928	-3.88
526.382	-5.48
526.837	2.12
527.291	-2.88
527.745	-3.78
528.2	-0.78
528.654	-4.78
529.108	-1.28
529.562	-3.98
530.016	-2.98
530.47	-7.18
530.925	-4.28
531.379	-7.58
531.833	-8.38
532.287	-4.28
532.741	-5.18
533.195	-7.58
533.649	-8.18
534.103	-0.88
534.556	-6.78
535.01	-5.18
535.464	-3.08
535.918	1.92
536.372	-2.88
536.826	1.62
537.279	-0.18
537.733	-0.38
538.187	-11.78
538.64	-6.98
539.094	-7.88
539.548	-4.78
540.001	-11.28
540.455	-7.88
540.908	-2.48
541.362	-1.78
541.815	0.42
542.269	-3.28
542.722	-3.08
543.175	-4.68
543.629	-10.68
544.082	-1.58
544.536	-5.28
544.989	-11.08
545.442	1.22
545.895	0.02
546.349	-2.78
546.802	-12.78
547.255	-2.78
547.708	-5.78
548.161	-3.78
548.614	-5.08
549.067	-1.78
549.52	-1.48
549.973	-6.48
550.426	-1.48
550.879	-13.38
551.332	-2.98
551.785	-1.08
552.238	-3.78
552.691	3.92
553.144	-0.38
553.596	-3.08
554.049	-7.28
554.502	-4.48
554.955	-0.48
555.407	-1.78
555.86	-5.28
556.313	-0.18
556.765	-2.38
557.218	2.22
557.67	-0.08
558.123	-7.68
558.576	-8.28
559.028	-3.28
559.48	-3.78
559.933	-6.08
560.385	-1.78
560.838	2.22
561.29	3.32
561.742	-0.98
562.195	-5.78
562.647	-6.58
563.099	0.72
563.551	-2.68
564.004	-2.18
564.456	-4.28
564.908	-3.78
565.36	-5.18
565.812	0.92
566.264	-11.68
566.716	2.52
567.168	-3.68
567.62	1.32
568.072	-8.68
568.524	-8.18
568.976	-0.98
569.428	-2.08
569.88	-2.78
570.332	-5.78
570.784	-6.78
571.235	-10.38
571.687	3.22
572.139	-2.18
572.59	0.62
573.042	-5.48
573.494	-5.48
573.945	-6.98
574.397	-9.88
574.849	-1.68
575.3	-4.38
575.752	0.32
576.203	-9.58
576.655	-1.18
577.106	-2.18
577.557	-2.68
578.009	-1.88
578.46	-6.08
578.912	-0.28
579.363	-4.48
579.814	-2.18
580.265	-14.48
580.717	-8.58
581.168	-11.18
581.619	-5.78
582.07	1.02
582.521	-2.38
582.972	-12.38
583.423	-3.38
583.875	-9.58
584.326	-0.38
584.777	-3.08
585.227	-2.08
585.678	-6.78
586.129	-9.68
586.58	-1.18
587.031	-0.48
587.482	0.12
587.933	-3.18
588.384	-5.18
588.834	-4.38
589.285	-0.08
589.736	1.62
590.186	-8.68
590.637	0.02
591.088	-3.78
591.538	4.32
591.989	4.52
592.439	1.22
592.89	-0.78
593.34	-5.28
593.791	-4.28
594.241	-8.28
594.692	0.42
595.142	-0.88
595.593	-2.78
596.043	-1.28
596.493	-1.78
596.943	-1.18
597.394	-11.58
597.844	-12.38
598.294	-5.28
598.744	-1.88
599.195	-7.08
599.645	2.02
600.095	-7.68
600.545	-6.78
600.995	-10.38
601.445	-0.68
601.895	-4.78
602.345	0.62
602.795	-7.28
603.245	-6.68
603.695	-4.28
604.145	-6.38
604.594	-1.58
605.044	-5.58
605.494	-8.68
605.944	-13.18
606.393	-1.58
606.843	-3.28
607.293	-2.98
607.743	-9.78
608.192	-4.18
608.642	-1.38
609.091	-4.88
609.541	-2.88
609.99	-3.18
610.44	-0.48
610.889	-3.28
611.339	-9.98
611.788	-6.08
612.238	-4.18
612.687	5.82
613.136	-0.38
613.586	-3.58
614.035	-1.38
614.484	-9.48
614.933	-6.28
615.383	2.42
615.832	-0.28
616.281	-2.08
616.73	-1.68
617.179	0.32
617.628	-3.28
618.077	-2.48
618.526	-8.88
618.975	-3.78
619.424	0.92
619.873	-3.78
620.322	0.22
620.771	-9.48
621.22	-2.98
621.669	5.32
622.118	-1.78
622.567	-6.78
623.015	-4.38
623.464	-2.28
623.913	-2.18
624.361	-4.78
624.81	-8.58
625.259	-4.08
625.707	-0.58
626.156	-4.78
626.604	0.92
627.053	-6.28
627.501	-9.48
627.95	-4.28
628.398	-8.28
628.847	-7.18
629.295	-10.38
629.744	-6.58
630.192	2.32
630.64	-2.98
631.089	-10.48
631.537	-1.98
631.985	-3.98
632.433	-2.78
632.881	-9.68
633.33	0.62
633.778	-6.18
634.226	-5.38
634.674	-6.08
635.122	-2.18
635.57	-4.28
636.018	-2.98
636.466	6.92
636.914	-6.18
637.362	-3.28
637.81	3.92
638.258	6.72
638.705	-2.98
639.153	-0.78
639.601	-10.98
640.049	-6.18
640.497	-9.08
640.944	-2.08
641.392	-13.48
641.84	-3.78
642.287	-5.88
642.735	-13.38
643.182	-5.48
643.63	-8.88
644.078	-9.18
644.525	-3.08
644.973	-7.78
645.42	-6.18
645.867	-10.88
646.315	2.82
646.762	-7.18
647.21	-2.48
647.657	-10.98
648.104	4.52
648.551	-1.38
648.999	-3.18
649.446	-1.98
649.893	-3.58
650.34	-5.18
650.787	-8.78
651.234	2.82
651.682	-7.68
652.129	-3.08
652.576	-9.68
653.023	1.82
653.47	0.22
653.917	-6.68
654.363	-1.48
654.81	-0.18
655.257	-11.28
655.704	0.52
656.151	-0.98
656.598	-3.68
657.044	-1.58
657.491	1.82
657.938	-7.58
658.385	0.42
658.831	-3.88
659.278	5.02
659.724	-10.48
660.171	-3.38
660.618	-3.18
661.064	4.42
661.511	-5.48
661.957	-5.18
662.404	-8.28
662.85	2.42
663.296	4.82
663.743	3.22
664.189	0.52
664.635	1.32
665.082	-4.98
665.528	-4.98
665.974	-6.78
666.42	-5.88
666.867	-0.48
667.313	-9.28
667.759	1.92
668.205	-1.08
668.651	2.42
669.097	1.82
669.543	-10.28
669.989	-6.98
670.435	-1.88
670.881	-6.78
671.327	-5.68
671.773	-1.28
672.219	3.32
672.665	1.42
673.11	-9.08
673.556	-5.08
674.002	1.02
674.448	-11.98
674.893	-6.48
675.339	0.82
675.785	3.42
676.23	-1.48
676.676	-8.68
677.122	-3.18
677.567	-8.38
678.013	-1.38
678.458	-4.78
678.904	-2.08
679.349	-13.78
679.794	-5.08
680.24	-2.38
680.685	-3.08
681.131	-8.48
681.576	-4.48
682.021	2.32
682.466	-3.38
682.912	-6.68
683.357	-9.38
683.802	0.32
684.247	-3.88
684.692	-3.98
685.137	-7.88
685.583	-0.88
686.028	0.52
686.473	-3.18
686.918	-6.98
687.363	2.82
687.807	0.42
688.252	-10.58
688.697	3.52
689.142	0.92
689.587	-7.48
690.032	-6.68
690.477	-6.88
690.921	-8.28
691.366	1.22
691.811	-5.08
692.255	5.42
692.7	3.22
693.145	-5.58
693.589	-8.48
694.034	-1.48
694.478	2.72
694.923	4.82
695.367	-1.98
695.812	-7.88
696.256	0.62
696.701	0.82
697.145	-4.78
697.59	-1.38
698.034	-7.78
698.478	0.12
698.922	-4.38
699.367	-5.68
699.811	-1.18
700.255	3.82
700.699	2.42
701.143	-6.78
701.588	-7.78
702.032	-3.38
702.476	-9.38
702.92	-1.98
703.364	-2.08
703.808	-4.48
704.252	-1.98
704.696	-6.88
705.14	-5.78
705.584	-6.28
706.027	-4.28
706.471	-8.58
706.915	-1.68
707.359	-7.68
707.803	-9.48
708.246	-11.68
708.69	-3.88
709.134	-0.08
709.577	2.42
710.021	-1.28
710.465	2.92
710.908	-2.08
711.352	-9.68
711.795	-7.48
712.239	-6.08
712.682	-13.28
713.126	-4.18
713.569	-1.78
714.012	3.72
714.456	-8.68
714.899	-5.88
715.342	-6.28
715.786	-8.48
716.229	-1.28
716.672	0.92
717.115	-2.18
717.558	1.52
718.002	-3.28
718.445	1.02
718.888	3.92
719.331	-2.58
719.774	-3.08
720.217	-3.18
720.66	-6.88
721.103	-6.38
721.546	2.22
721.989	-2.38
722.432	-13.68
722.874	3.42
723.317	-13.98
723.76	-6.48
724.203	-1.48
724.645	-0.88
725.088	-3.18
725.531	-3.88
725.974	-9.08
726.416	-4.48
726.859	-6.98
727.301	-4.38
727.744	-4.78
728.187	-7.48
728.629	5.72
729.071	-3.88
729.514	2.82
729.956	-5.58
730.399	-3.08
730.841	0.22
731.283	-10.58
731.726	-0.78
732.168	-13.18
732.61	2.62
733.053	-4.18
733.495	-3.58
733.937	-4.78
734.379	-5.98
734.821	-4.28
735.263	-4.88
735.705	-6.78
736.148	-6.68
736.59	4.62
737.032	-9.48
737.474	-1.68
737.916	-14.18
738.357	-1.98
738.799	-7.48
739.241	-8.68
739.683	-10.38
740.125	-7.88
740.567	-10.88
741.008	-1.38
741.45	4.12
741.892	4.82
742.334	2.42
742.775	-7.78
743.217	-8.78
743.658	-7.78
744.1	-2.18
744.542	-0.68
744.983	-0.88
745.425	-2.18
745.866	-6.58
746.307	6.42
746.749	-2.98
747.19	0.32
747.632	-6.38
748.073	-13.38
748.514	-5.18
748.956	-4.68
749.397	-4.48
749.838	-4.28
750.279	-8.58
750.72	-3.58
751.162	-4.98
751.603	-7.08
752.044	-5.28
752.485	-9.98
752.926	-6.08
753.367	-2.18
753.808	3.92
754.249	-1.38
754.69	-11.48
755.131	-4.58
755.572	-4.18
756.013	-5.38
756.453	-0.58
756.894	-5.78
757.335	-3.38
757.776	-2.58
758.216	-2.58
758.657	-5.98
759.098	-10.48
759.538	-7.08
759.979	-6.38
760.42	-8.18
760.86	-6.88
761.301	-2.98
761.741	-2.28
762.182	-2.18
762.622	2.82
763.063	-9.28
763.503	-0.88
763.943	-2.68
764.384	6.02
764.824	-3.08
765.264	0.22
765.705	-0.78
766.145	-8.88
766.585	-6.38
767.025	-7.58
767.465	-10.38
767.906	-2.38
768.346	4.22
768.786	-4.78
769.226	-8.68
769.666	-2.68
770.106	-5.28
770.546	-7.08
770.986	-5.98
771.426	-5.68
771.866	0.62
772.306	-4.08
772.745	-7.28
773.185	-6.08
773.625	-3.48
774.065	-4.28
774.505	-6.28
774.944	-9.68
775.384	2.72
775.824	-4.48
776.263	-4.28
776.703	-8.08
777.142	-5.28
777.582	-5.48
778.021	-0.98
778.461	-1.08
778.9	1.62
779.34	2.02
779.779	-8.58
780.219	-6.48
780.658	-8.88
781.097	-10.28
781.537	-6.48
781.976	-5.98
782.415	-9.38
782.855	-6.08
783.294	-8.78
783.733	-2.88
784.172	-1.68
784.611	-5.78
785.05	-4.78
785.489	-2.28
785.928	0.22
786.367	5.02
786.806	-6.98
787.245	-0.58
787.684	-5.68
788.123	-0.58
788.562	-0.98
789.001	0.72
789.44	-7.78
789.879	-2.88
790.317	-8.18
790.756	2.62
791.195	-0.28
791.634	-4.18
792.072	3.82
792.511	0.32
792.95	3.92
793.388	-4.38
793.827	0.72
794.265	-6.58
794.704	-4.78
795.142	-3.08
795.581	6.42
796.019	-1.28
796.458	-5.88
796.896	-10.58
797.334	-2.88
797.773	-3.68
798.211	6.32
798.649	5.12
799.087	-7.38
799.526	-7.08
799.964	-6.08
800.402	2.32
800.84	-2.48
801.278	-10.58
801.716	-4.48
802.154	-3.38
802.592	5.22
803.03	-6.48
803.468	-9.58
803.906	-2.58
804.344	2.02
804.782	-2.78
805.22	-7.78
805.658	-8.88
806.096	1.82
806.533	-1.08
806.971	-0.98
807.409	-9.48
807.847	-6.58
808.284	-6.48
808.722	-6.18
809.16	-3.18
809.597	3.22
810.035	-7.98
810.472	-3.98
810.91	-0.68
811.347	7.72
811.785	4.12
812.222	-5.58
812.66	-4.48
813.097	-4.38
813.535	-2.48
813.972	-0.18
814.409	3.42
814.846	0.52
815.284	3.72
815.721	-7.28
816.158	2.02
816.595	-7.08
817.032	-3.88
817.47	0.32
817.907	3.52
818.344	-4.88
818.781	-4.28
819.218	-7.68
819.655	-4.98
820.092	-2.58
820.529	-12.68
820.966	-6.28
821.403	-6.68
821.839	-4.18
822.276	-8.68
822.713	-1.38
823.15	-0.88
823.587	-6.98
824.023	-4.68
824.46	-7.18
824.897	-5.18
825.333	-8.48
825.77	2.62
826.206	-2.88
826.643	2.62
827.08	1.52
827.516	-8.98
827.953	-4.78
828.389	-0.68
828.825	-4.28
829.262	-4.08
829.698	-7.48
830.135	-5.38
830.571	-2.28
831.007	-1.88
831.443	-11.28
831.88	-6.08
832.316	-4.98
832.752	-1.88
833.188	-4.48
833.624	-5.08
834.06	-2.08
834.497	1.32
834.933	0.62
835.369	7.22
835.805	-3.28
836.241	-1.18
836.677	-5.38
837.112	-10.08
837.548	-12.78
837.984	-2.38
838.42	-5.28
838.856	-6.08
839.292	-9.48
839.727	2.12
840.163	-0.88
840.599	-8.58
841.034	-4.88
841.47	4.12
841.906	0.32
842.341	-3.88
842.777	-6.78
843.212	-3.08
843.648	1.22
844.083	2.92
844.519	-1.28
844.954	-2.18
845.39	-12.88
845.825	-11.08
846.261	-5.48
846.696	-3.28
847.131	-5.28
847.566	5.12
848.002	-4.18
848.437	-3.28
848.872	0.72
849.307	0.22
849.742	-3.98
850.177	-5.28
850.613	-0.48
851.048	-6.88
851.483	-2.98
851.918	-3.18
852.353	-6.28
852.788	-13.88
853.223	-4.48
853.657	-3.68
854.092	0.32
854.527	-2.88
854.962	-3.08
855.397	-6.78
855.832	-0.78
856.266	-3.28
856.701	-4.78
857.136	-1.38
857.57	-1.98
858.005	-3.38
858.44	0.82
858.874	-6.98
859.309	2.22
859.743	-14.58
860.178	-4.18
860.612	-9.58
861.047	-0.58
861.481	-2.48
861.915	2.92
862.35	-1.68
862.784	-10.18
863.218	-5.08
863.653	-8.18
864.087	1.12
864.521	5.92
864.955	-7.68
865.39	-0.78
865.824	-12.48
866.258	-2.68
866.692	2.42
867.126	-1.78
867.56	-6.08
867.994	-3.68
868.428	-5.08
868.862	-8.48
869.296	0.62
869.73	7.82
870.164	3.32
870.598	-7.98
871.031	-0.28
871.465	-4.18
871.899	2.12
872.333	-8.18
872.766	-3.58
873.2	-7.78
873.634	0.02
874.067	-5.88
874.501	-7.38
874.935	1.02
875.368	-3.68
875.802	-3.98
876.235	-9.58
876.669	-0.48
877.102	1.42
877.535	3.12
877.969	-2.38
878.402	1.22
878.836	-8.88
879.269	2.02
879.702	-0.68
880.135	-1.98
880.569	0.32
881.002	-4.58
881.435	-0.98
881.868	-6.58
882.301	-3.08
882.734	-5.58
883.167	-2.58
883.601	-4.78
884.034	-4.48
884.467	-9.78
884.899	-1.48
885.332	-7.08
885.765	-6.28
886.198	-3.88
886.631	-2.38
887.064	-0.68
887.497	4.22
887.929	5.12
888.362	-4.48
888.795	-12.48
889.228	-3.18
889.66	3.92
890.093	-3.18
890.526	-2.38
890.958	-3.98
891.391	-3.78
891.823	-1.68
892.256	-4.08
892.688	-2.98
893.121	-1.58
893.553	-0.78
893.985	4.12
894.418	1.22
894.85	-7.68
895.282	0.52
895.715	3.12
896.147	-1.98
896.579	-0.88
897.011	-3.58
897.444	-3.18
897.876	-3.18
898.308	-4.28
898.74	-1.18
899.172	-4.68
899.604	6.52
900.036	-3.78
900.468	-3.08
900.9	-6.18
901.332	-3.18
901.764	-10.28
902.196	-9.68
902.628	-9.58
903.06	-5.88
903.491	-0.18
903.923	-3.78
904.355	0.22
904.787	-0.48
905.218	0.72
905.65	-4.88
906.082	-10.98
906.513	-9.68
906.945	-6.98
907.376	-7.68
907.808	-2.48
908.239	-7.38
908.671	-3.18
909.102	-6.68
909.534	-3.18
909.965	-3.58
910.397	2.22
910.828	0.12
911.259	-3.48
911.691	1.92
912.122	-7.98
912.553	-5.88
912.984	-1.58
913.415	0.82
913.847	3.52
914.278	-1.98
914.709	-5.18
915.14	3.72
915.571	-2.48
916.002	-5.48
916.433	2.12
916.864	-1.98
917.295	-6.18
917.726	-0.18
918.157	-5.78
918.587	-1.08
919.018	-0.88
919.449	-2.88
919.88	-3.68
920.311	-6.48
920.741	-8.38
921.172	-6.48
921.603	-5.18
922.033	-10.08
922.464	-1.68
922.895	-8.08
923.325	1.42
923.756	2.02
924.186	-4.28
924.617	-1.78
925.047	-10.48
925.478	-12.38
925.908	-3.68
926.338	-12.18
926.769	-6.58
927.199	1.32
927.629	-4.38
928.06	0.82
928.49	0.22
928.92	-4.08
929.35	-2.98
929.78	-0.68
930.21	0.02
930.641	-3.88
931.071	-0.48
931.501	-7.48
931.931	-4.68
932.361	1.62
932.791	-6.08
933.221	-6.28
933.651	-7.18
934.08	-5.98
934.51	9.42
934.94	-6.88
935.37	-1.38
935.8	2.12
936.229	-1.48
936.659	3.62
937.089	-10.98
937.519	-0.08
937.948	2.72
938.378	-2.48
938.807	-1.58
939.237	-6.08
939.666	1.62
940.096	-8.38
940.525	-0.38
940.955	-3.18
941.384	-4.98
941.814	-14.38
942.243	-6.08
942.672	-6.88
943.102	0.92
943.531	-4.38
943.96	2.72
944.39	1.52
944.819	-3.98
945.248	-4.38
945.677	-1.68
946.106	-1.38
946.535	-2.18
946.964	-1.88
947.393	-3.18
947.822	-3.48
948.251	-6.88
948.68	3.72
949.109	-5.58
949.538	-1.98
949.967	-9.08
950.396	-2.28
950.825	-2.48
951.254	-2.28
951.682	-12.48
952.111	1.22
952.54	-5.28
952.969	-7.78
953.397	-10.68
953.826	0.92
954.254	-10.18
954.683	-0.58
955.112	-8.38
955.54	2.42
955.969	-7.08
956.397	1.32
956.826	-6.18
957.254	0.22
957.682	0.62
958.111	2.72
958.539	-7.78
958.967	-2.88
959.396	-3.18
959.824	-6.78
960.252	-1.68
960.68	-7.38
961.109	-0.18
961.537	-8.08
961.965	-6.68
962.393	-5.68
962.821	-6.08
963.249	-2.28
963.677	-4.88
964.105	-7.58
964.533	-5.78
964.961	-6.68
965.389	-4.38
965.817	-5.88
966.245	-6.18
966.672	-6.88
967.1	-10.48
967.528	-4.18
967.956	-4.18
968.383	-9.48
968.811	-6.28
969.239	-3.48
969.666	-1.68
970.094	-1.88
970.522	-0.88
970.949	-5.28
971.377	-5.28
971.804	-1.18
972.232	-6.78
972.659	-3.08
973.087	-7.48
973.514	-8.88
973.941	-5.68
974.369	4.62
974.796	-0.18
975.223	-0.78
975.651	-0.68
976.078	1.92
976.505	-3.68
976.932	-5.78
977.359	-6.38
977.786	2.52
978.214	-14.08
978.641	-8.78
979.068	-11.58
979.495	-8.48
979.922	-5.08
980.349	-7.48
980.776	0.02
981.202	-0.28
981.629	-2.88
982.056	-3.08
982.483	-7.48
982.91	-0.18
983.337	-8.38
983.763	4.72
984.19	-11.68
984.617	-12.48
985.043	-5.28
985.47	-3.88
985.897	-7.18
986.323	-4.98
986.75	-1.28
987.176	-2.28
987.603	-8.08
988.029	0.42
988.456	-3.48
988.882	2.22
989.308	-11.38
989.735	-6.68
990.161	-2.08
990.587	-5.38
991.014	3.12
991.44	6.52
991.866	0.82
992.292	-8.18
992.719	-10.68
993.145	-1.48
993.571	-15.58
993.997	-7.48
994.423	-4.58
994.849	-2.58
995.275	-0.38
995.701	0.72
996.127	-2.18
996.553	4.82
996.979	-2.88
997.405	-2.28
997.83	-4.18
998.256	-7.18
998.682	-5.18
999.108	-11.38
999.534	-1.38
999.959	-6.18
1000.385	-9.28
1000.811	-5.38
1001.236	-9.88
1001.662	-4.88
1002.087	-11.88
1002.513	-2.08
1002.938	-4.58
1003.364	-5.48
1003.789	-1.58
1004.215	1.52
1004.64	-0.08
1005.066	2.92
1005.491	-3.28
1005.916	2.32
1006.342	-7.28
1006.767	-4.88
1007.192	5.02
1007.617	-12.58
1008.042	-10.18
1008.468	-3.38
1008.893	-5.78
1009.318	-1.18
1009.743	-8.38
1010.168	-6.08
1010.593	-11.38
1011.018	-9.98
1011.443	-6.08
1011.868	-2.58
1012.293	-6.18
1012.718	-7.28
1013.143	-5.08
1013.567	0.52
1013.992	-3.48
1014.417	-13.88
1014.842	-4.18
1015.267	-5.28
1015.691	-3.98
1016.116	5.82
1016.541	-0.98
1016.965	-0.28
1017.39	1.22
1017.814	-2.68
1018.239	-2.28
1018.663	-5.88
1019.088	-5.38
1019.512	-3.88
1019.937	-1.48
1020.361	-7.78
1020.785	-12.78
1021.21	-6.48
1021.634	1.22
1022.058	0.42
1022.483	5.02
1022.907	-5.68
1023.331	-4.68
1023.755	4.02
1024.179	-0.28
1024.604	-7.88
1025.028	-8.08
1025.452	-6.08
1025.876	-5.08
1026.3	2.72
1026.724	-6.58
1027.148	-6.58
1027.572	-9.08
1027.996	2.02
1028.42	-5.08
1028.843	-4.28
1029.267	-7.98
1029.691	-2.48
1030.115	-7.18
1030.539	-9.08
1030.962	-8.18
1031.386	-10.38
1031.81	-1.88
1032.233	-9.78
1032.657	-8.98
1033.08	-8.08
1033.504	-4.08
1033.927	2.02
1034.351	-2.28
1034.774	-6.68
1035.198	-0.38
1035.621	-1.38
1036.045	-6.48
1036.468	0.52
1036.891	-14.38
1037.315	-9.88
1037.738	-9.38
1038.161	3.32
1038.584	-3.28
1039.008	-5.88
1039.431	-0.98
1039.854	-1.38
1040.277	-3.28
1040.7	-11.18
1041.123	-3.28
1041.546	-7.08
1041.969	-1.08
1042.392	-0.98
1042.815	-5.58
1043.238	1.92
1043.661	1.32
1044.084	-9.18
1044.507	-1.38
1044.93	-9.48
1045.352	-4.68
1045.775	-4.18
1046.198	-3.08
1046.621	-2.98
1047.043	-7.48
1047.466	0.32
1047.889	-0.48
1048.311	-7.08
1048.734	1.42
1049.156	-2.98
1049.579	-2.18
1050.001	1.32
1050.424	-1.88
1050.846	-2.38
1051.269	-4.18
1051.691	-5.68
1052.113	-10.18
1052.536	1.52
1052.958	-3.68
1053.38	-8.28
1053.802	-5.98
1054.225	4.52
1054.647	-11.88
1055.069	-2.58
1055.491	5.12
1055.913	-4.88
1056.335	5.42
1056.757	-2.88
1057.179	-7.88
1057.601	-5.78
1058.023	-3.88
1058.445	-5.18
1058.867	-2.78
1059.289	2.32
1059.711	-5.28
1060.133	0.02
1060.555	-2.58
1060.976	-13.78
1061.398	-5.78
1061.82	-7.88
1062.241	-2.28
1062.663	-8.08
1063.085	-5.08
1063.506	1.72
1063.928	-4.18
1064.35	3.42
1064.771	-7.48
1065.193	-1.88
1065.614	-6.18
1066.035	3.72
1066.457	-6.78
1066.878	-1.88
1067.3	-6.38
1067.721	2.32
1068.142	-3.58
1068.564	-3.68
1068.985	-7.78
1069.406	-4.48
1069.827	-5.38
1070.248	2.72
1070.67	-8.08
1071.091	-9.38
1071.512	-5.58
1071.933	-8.58
1072.354	-9.08
1072.775	-4.48
1073.196	-10.48
1073.617	1.42
1074.038	-6.08
1074.459	-5.08
1074.88	-5.88
1075.3	-0.48
1075.721	-7.48
1076.142	4.42
1076.563	1.62
1076.983	-11.98
1077.404	-7.28
1077.825	-6.28
1078.246	-4.78
1078.666	-9.08
1079.087	-3.88
1079.507	-3.88
1079.928	2.22
1080.348	-3.88
1080.769	-0.98
1081.189	6.42
1081.61	-2.18
1082.03	-6.98
1082.451	-6.18
1082.871	-4.18
1083.291	-3.58
1083.711	-6.58
1084.132	-10.08
1084.552	-8.68
1084.972	-4.08
1085.392	-10.18
1085.813	-11.98
1086.233	-8.68
1086.653	-4.78
1087.073	-3.28
1087.493	-7.58
1087.913	-7.68
1088.333	-6.38
1088.753	-7.68
1089.173	4.42
1089.593	-0.58
1090.013	3.42
1090.433	5.22
1090.852	-7.28
1091.272	-8.28
1091.692	-2.08
1092.112	-1.78
1092.531	-12.08
1092.951	-11.48
1093.371	-0.88
1093.79	5.82
1094.21	-3.58
1094.63	-4.18
1095.049	-2.58
1095.469	0.82
1095.888	1.02
1096.308	3.82
1096.727	5.02
1097.146	-5.28
1097.566	-2.28
1097.985	1.12
1098.405	-1.48
1098.824	-10.58
1099.243	-9.78
1099.662	-3.38
1100.082	-2.98
1100.501	3.52
1100.92	-3.78
1101.339	1.42
1101.758	-4.68
