Data from 20170802-ORNL-NYSim-Air_HRD10391_10-37-36-641.txt Node
Date: Wed Aug 02 10:37:36 EDT 2017
User: Ender
Spectrometer: HR+D1039
Trigger mode: 0
Integration Time (sec): 1.510000E-3
Scans to average: 1
Electric dark correction enabled: true
Nonlinearity correction enabled: false
Boxcar width: 0
XAxis mode: Wavelengths
Number of Pixels in Spectrum: 2048
>>>>>Begin Spectral Data<<<<<
187.836	11
188.309	11
188.782	11
189.255	6
189.728	-12
190.201	-20
190.674	-4
191.147	-4
191.619	7
192.092	-16
192.565	-5
193.038	-7
193.511	7
193.984	3
194.456	3
194.929	23
195.402	6
195.874	2
196.347	14
196.82	28
197.292	28
197.765	36
198.237	49
198.71	41
199.182	39
199.655	41
200.127	55
200.6	36
201.072	52
201.544	68
202.017	76
202.489	53
202.961	65
203.433	79
203.906	74
204.378	72
204.85	69
205.322	77
205.794	63
206.266	80
206.739	74
207.211	78
207.683	65
208.155	95
208.627	89
209.099	90
209.57	77
210.042	86
210.514	79
210.986	86
211.458	100
211.93	77
212.402	93
212.873	74
213.345	110
213.817	99
214.288	90
214.76	87
215.232	78
215.703	98
216.175	94
216.646	93
217.118	84
217.589	66
218.061	75
218.532	80
219.004	72
219.475	87
219.946	78
220.418	68
220.889	91
221.36	72
221.832	91
222.303	76
222.774	78
223.245	84
223.717	88
224.188	86
224.659	56
225.13	65
225.601	71
226.072	79
226.543	88
227.014	80
227.485	80
227.956	82
228.427	75
228.898	77
229.369	80
229.839	88
230.31	74
230.781	93
231.252	87
231.722	62
232.193	88
232.664	74
233.135	79
233.605	84
234.076	69
234.546	69
235.017	85
235.487	78
235.958	97
236.428	86
236.899	101
237.369	70
237.84	68
238.31	84
238.78	79
239.251	99
239.721	82
240.191	76
240.662	93
241.132	93
241.602	79
242.072	82
242.542	95
243.013	72
243.483	87
243.953	82
244.423	95
244.893	72
245.363	82
245.833	91
246.303	68
246.773	94
247.243	95
247.712	113
248.182	81
248.652	86
249.122	91
249.592	97
250.061	96
250.531	76
251.001	101
251.471	95
251.94	92
252.41	96
252.879	88
253.349	99
253.818	106
254.288	86
254.757	89
255.227	105
255.696	99
256.166	98
256.635	84
257.105	87
257.574	101
258.043	89
258.513	96
258.982	94
259.451	104
259.92	89
260.389	105
260.859	112
261.328	75
261.797	89
262.266	78
262.735	86
263.204	110
263.673	110
264.142	95
264.611	88
265.08	91
265.549	109
266.018	99
266.487	88
266.955	98
267.424	88
267.893	111
268.362	103
268.83	107
269.299	107
269.768	96
270.236	99
270.705	83
271.174	100
271.642	113
272.111	101
272.579	106
273.048	103
273.516	108
273.985	100
274.453	106
274.922	90
275.39	107
275.858	114
276.327	96
276.795	104
277.263	108
277.731	105
278.2	112
278.668	104
279.136	103
279.604	98
280.072	114
280.54	105
281.008	104
281.477	110
281.945	102
282.413	111
282.881	94
283.348	114
283.816	112
284.284	118
284.752	104
285.22	93
285.688	101
286.156	116
286.623	94
287.091	122
287.559	122
288.026	113
288.494	106
288.962	120
289.429	111
289.897	121
290.364	110
290.832	111
291.3	113
291.767	113
292.234	123
292.702	108
293.169	112
293.637	115
294.104	134
294.571	122
295.039	126
295.506	127
295.973	107
296.44	121
296.908	115
297.375	104
297.842	127
298.309	118
298.776	129
299.243	114
299.71	130
300.177	119
300.644	113
301.111	114
301.578	105
302.045	128
302.512	133
302.979	136
303.446	122
303.913	122
304.379	128
304.846	137
305.313	116
305.78	145
306.246	135
306.713	137
307.18	137
307.646	127
308.113	138
308.579	139
309.046	137
309.512	141
309.979	150
310.445	138
310.912	142
311.378	130
311.845	141
312.311	130
312.777	145
313.244	130
313.71	136
314.176	146
314.642	143
315.109	147
315.575	149
316.041	161
316.507	166
316.973	147
317.439	144
317.905	140
318.371	157
318.837	164
319.303	131
319.769	142
320.235	144
320.701	126
321.167	139
321.633	165
322.099	154
322.564	160
323.03	149
323.496	144
323.962	160
324.427	140
324.893	165
325.359	162
325.824	156
326.29	165
326.755	141
327.221	164
327.686	168
328.152	152
328.617	157
329.083	177
329.548	155
330.014	163
330.479	161
330.944	147
331.41	180
331.875	190
332.34	158
332.805	175
333.271	171
333.736	186
334.201	180
334.666	181
335.131	180
335.596	187
336.061	167
336.526	173
336.991	180
337.456	176
337.921	173
338.386	191
338.851	169
339.316	171
339.781	158
340.246	176
340.711	171
341.175	180
341.64	186
342.105	199
342.569	180
343.034	182
343.499	197
343.963	199
344.428	195
344.893	208
345.357	192
345.822	172
346.286	215
346.751	207
347.215	201
347.679	201
348.144	214
348.608	206
349.073	203
349.537	227
350.001	223
350.465	237
350.93	213
351.394	229
351.858	206
352.322	195
352.786	204
353.25	215
353.715	232
354.179	232
354.643	240
355.107	246
355.571	227
356.035	237
356.498	238
356.962	220
357.426	232
357.89	242
358.354	229
358.818	243
359.281	215
359.745	220
360.209	249
360.673	213
361.136	231
361.6	218
362.064	228
362.527	247
362.991	248
363.454	243
363.918	233
364.381	217
364.845	211
365.308	230
365.772	242
366.235	227
366.698	243
367.162	232
367.625	265
368.088	246
368.552	261
369.015	251
369.478	245
369.941	248
370.404	261
370.867	252
371.331	243
371.794	252
372.257	246
372.72	250
373.183	278
373.646	258
374.109	260
374.572	289
375.035	284
375.497	278
375.96	263
376.423	274
376.886	305
377.349	278
377.811	268
378.274	284
378.737	271
379.199	285
379.662	283
380.125	308
380.587	290
381.05	300
381.512	264
381.975	301
382.437	296
382.9	299
383.362	291
383.825	310
384.287	320
384.75	303
385.212	307
385.674	312
386.136	300
386.599	306
387.061	297
387.523	322
387.985	310
388.447	320
388.91	319
389.372	300
389.834	332
390.296	330
390.758	321
391.22	298
391.682	286
392.144	300
392.606	333
393.068	335
393.529	360
393.991	334
394.453	322
394.915	339
395.377	303
395.838	332
396.3	336
396.762	326
397.224	324
397.685	309
398.147	349
398.608	326
399.07	344
399.531	347
399.993	360
400.454	348
400.916	351
401.377	362
401.839	370
402.3	359
402.762	357
403.223	374
403.684	400
404.145	389
404.607	370
405.068	364
405.529	371
405.99	353
406.451	369
406.913	367
407.374	370
407.835	383
408.296	380
408.757	409
409.218	422
409.679	406
410.14	395
410.601	400
411.062	423
411.522	412
411.983	412
412.444	444
412.905	419
413.366	454
413.826	451
414.287	515
414.748	575
415.208	593
415.669	518
416.13	480
416.59	480
417.051	511
417.511	486
417.972	561
418.432	550
418.893	601
419.353	612
419.814	486
420.274	411
420.734	423
421.195	455
421.655	472
422.115	466
422.576	442
423.036	439
423.496	461
423.956	458
424.416	490
424.876	565
425.336	548
425.797	537
426.257	524
426.717	502
427.177	504
427.637	491
428.097	518
428.556	523
429.016	538
429.476	577
429.936	559
430.396	559
430.856	555
431.315	592
431.775	594
432.235	613
432.694	648
433.154	634
433.614	628
434.073	599
434.533	548
434.993	519
435.452	517
435.912	504
436.371	505
436.83	490
437.29	495
437.749	502
438.209	488
438.668	507
439.127	506
439.587	508
440.046	474
440.505	488
440.964	490
441.424	514
441.883	544
442.342	490
442.801	464
443.26	479
443.719	466
444.178	494
444.637	478
445.096	489
445.555	472
446.014	464
446.473	472
446.932	474
447.391	476
447.849	490
448.308	491
448.767	509
449.226	524
449.685	512
450.143	528
450.602	537
451.061	510
451.519	504
451.978	500
452.436	504
452.895	509
453.353	491
453.812	477
454.27	522
454.729	506
455.187	504
455.646	523
456.104	490
456.562	527
457.021	502
457.479	494
457.937	508
458.395	524
458.854	528
459.312	512
459.77	515
460.228	524
460.686	529
461.144	555
461.602	536
462.06	510
462.518	528
462.976	539
463.434	532
463.892	543
464.35	562
464.808	579
465.266	573
465.724	598
466.181	573
466.639	568
467.097	568
467.555	610
468.012	629
468.47	608
468.928	627
469.385	650
469.843	650
470.3	655
470.758	646
471.215	681
471.673	682
472.13	709
472.588	695
473.045	718
473.503	730
473.96	753
474.417	719
474.875	763
475.332	843
475.789	850
476.246	867
476.704	862
477.161	880
477.618	923
478.075	1001
478.532	1049
478.989	1066
479.446	1166
479.903	1226
480.36	1345
480.817	1413
481.274	1519
481.731	1622
482.188	1752
482.645	1871
483.102	1952
483.558	2074
484.015	2148
484.472	2176
484.929	2108
485.385	2014
485.842	1975
486.299	1868
486.755	1788
487.212	1628
487.668	1484
488.125	1373
488.582	1318
489.038	1240
489.494	1199
489.951	1192
490.407	1153
490.864	1139
491.32	1123
491.776	1097
492.233	1126
492.689	1085
493.145	1087
493.602	1067
494.058	1103
494.514	1072
494.97	1070
495.426	1122
495.882	1108
496.338	1086
496.794	1098
497.251	1096
497.707	1118
498.163	1128
498.618	1145
499.074	1131
499.53	1114
499.986	1118
500.442	1109
500.898	1100
501.354	1103
501.809	1125
502.265	1120
502.721	1112
503.177	1130
503.632	1152
504.088	1142
504.543	1162
504.999	1168
505.455	1212
505.91	1121
506.366	1168
506.821	1150
507.277	1112
507.732	1166
508.187	1157
508.643	1168
509.098	1110
509.553	1177
510.009	1165
510.464	1216
510.919	1206
511.375	1210
511.83	1243
512.285	1209
512.74	1304
513.195	1259
513.65	1318
514.105	1282
514.56	1319
515.015	1335
515.47	1380
515.925	1393
516.38	1320
516.835	1318
517.29	1322
517.745	1365
518.2	1354
518.655	1289
519.109	1292
519.564	1290
520.019	1283
520.474	1264
520.928	1240
521.383	1240
521.838	1216
522.292	1228
522.747	1219
523.201	1246
523.656	1207
524.11	1223
524.565	1214
525.019	1204
525.474	1253
525.928	1192
526.382	1174
526.837	1200
527.291	1236
527.745	1188
528.2	1181
528.654	1212
529.108	1193
529.562	1178
530.016	1227
530.47	1206
530.925	1216
531.379	1193
531.833	1204
532.287	1193
532.741	1189
533.195	1177
533.649	1220
534.103	1236
534.556	1212
535.01	1221
535.464	1192
535.918	1222
536.372	1197
536.826	1187
537.279	1174
537.733	1196
538.187	1152
538.64	1160
539.094	1215
539.548	1217
540.001	1226
540.455	1213
540.908	1250
541.362	1246
541.815	1258
542.269	1311
542.722	1291
543.175	1322
543.629	1294
544.082	1316
544.536	1310
544.989	1275
545.442	1329
545.895	1257
546.349	1327
546.802	1296
547.255	1306
547.708	1332
548.161	1341
548.614	1399
549.067	1366
549.52	1373
549.973	1345
550.426	1324
550.879	1316
551.332	1361
551.785	1309
552.238	1355
552.691	1364
553.144	1373
553.596	1409
554.049	1438
554.502	1461
554.955	1471
555.407	1493
555.86	1483
556.313	1432
556.765	1417
557.218	1440
557.67	1424
558.123	1388
558.576	1396
559.028	1412
559.48	1421
559.933	1370
560.385	1365
560.838	1338
561.29	1298
561.742	1284
562.195	1225
562.647	1216
563.099	1239
563.551	1233
564.004	1251
564.456	1223
564.908	1197
565.36	1162
565.812	1169
566.264	1149
566.716	1137
567.168	1137
567.62	1188
568.072	1118
568.524	1095
568.976	1108
569.428	1085
569.88	1136
570.332	1084
570.784	1085
571.235	1106
571.687	1118
572.139	1110
572.59	1129
573.042	1138
573.494	1118
573.945	1105
574.397	1115
574.849	1121
575.3	1127
575.752	1077
576.203	1089
576.655	1082
577.106	1077
577.557	1064
578.009	1064
578.46	1047
578.912	1065
579.363	1050
579.814	1060
580.265	1082
580.717	1077
581.168	1056
581.619	1038
582.07	1083
582.521	1047
582.972	1078
583.423	1093
583.875	1061
584.326	1069
584.777	1112
585.227	1113
585.678	1142
586.129	1175
586.58	1157
587.031	1160
587.482	1196
587.933	1270
588.384	1250
588.834	1236
589.285	1192
589.736	1174
590.186	1196
590.637	1203
591.088	1144
591.538	1121
591.989	1136
592.439	1100
592.89	1078
593.34	1108
593.791	1058
594.241	1080
594.692	1087
595.142	1056
595.593	1042
596.043	1068
596.493	1115
596.943	1089
597.394	1122
597.844	1146
598.294	1120
598.744	1143
599.195	1213
599.645	1266
600.095	1336
600.545	1430
600.995	1473
601.445	1538
601.895	1578
602.345	1635
602.795	1598
603.245	1576
603.695	1530
604.145	1432
604.594	1347
605.044	1290
605.494	1231
605.944	1154
606.393	1110
606.843	1106
607.293	1091
607.743	1093
608.192	1105
608.642	1111
609.091	1107
609.541	1119
609.99	1118
610.44	1068
610.889	1060
611.339	1067
611.788	1067
612.238	1053
612.687	1039
613.136	1051
613.586	1076
614.035	1062
614.484	1054
614.933	1071
615.383	1029
615.832	1008
616.281	980
616.73	1018
617.179	982
617.628	953
618.077	964
618.526	949
618.975	927
619.424	895
619.873	907
620.322	942
620.771	906
621.22	909
621.669	901
622.118	883
622.567	864
623.015	863
623.464	866
623.913	839
624.361	824
624.81	859
625.259	856
625.707	841
626.156	814
626.604	826
627.053	856
627.501	844
627.95	849
628.398	871
628.847	824
629.295	814
629.744	867
630.192	827
630.64	810
631.089	838
631.537	819
631.985	814
632.433	810
632.881	764
633.33	786
633.778	797
634.226	799
634.674	786
635.122	800
635.57	830
636.018	805
636.466	783
636.914	794
637.362	837
637.81	830
638.258	852
638.705	861
639.153	913
639.601	903
640.049	918
640.497	967
640.944	961
641.392	944
641.84	892
642.287	886
642.735	847
643.182	810
643.63	816
644.078	830
644.525	832
644.973	836
645.42	872
645.867	876
646.315	898
646.762	907
647.21	944
647.657	969
648.104	1026
648.551	1062
648.999	1108
649.446	1187
649.893	1273
650.34	1473
650.787	1766
651.234	2164
651.682	2870
652.129	3918
652.576	5628
653.023	7761
653.47	9538
653.917	10570
654.363	11109
654.81	11840
655.257	12428
655.704	9478
656.151	5681
656.598	3688
657.044	2650
657.491	2058
657.938	1646
658.385	1439
658.831	1277
659.278	1132
659.724	1081
660.171	978
660.618	916
661.064	863
661.511	870
661.957	853
662.404	782
662.85	799
663.296	788
663.743	793
664.189	767
664.635	766
665.082	754
665.528	755
665.974	746
666.42	703
666.867	734
667.313	707
667.759	674
668.205	697
668.651	653
669.097	658
669.543	648
669.989	658
670.435	664
670.881	705
671.327	706
671.773	760
672.219	742
672.665	799
673.11	850
673.556	882
674.002	897
674.448	914
674.893	818
675.339	689
675.785	648
676.23	635
676.676	600
677.122	606
677.567	556
678.013	560
678.458	567
678.904	560
679.349	541
679.794	534
680.24	562
680.685	540
681.131	516
681.576	540
682.021	560
682.466	529
682.912	543
683.357	564
683.802	595
684.247	640
684.692	668
685.137	734
685.583	746
686.028	798
686.473	793
686.918	664
687.363	615
687.807	589
688.252	566
688.697	542
689.142	528
689.587	501
690.032	525
690.477	546
690.921	570
691.366	613
691.811	598
692.255	676
692.7	746
693.145	933
693.589	1405
694.034	1782
694.478	2006
694.923	1889
695.367	2273
695.812	2112
696.256	907
696.701	608
697.145	533
697.59	518
698.034	514
698.478	510
698.922	500
699.367	519
699.811	531
700.255	559
700.699	627
701.143	675
701.588	680
702.032	707
702.476	744
702.92	777
703.364	884
703.808	1263
704.252	1732
704.696	1920
705.14	1860
705.584	2255
706.027	1858
706.471	883
706.915	622
707.359	569
707.803	538
708.246	470
708.69	481
709.134	480
709.577	462
710.021	495
710.465	464
710.908	444
711.352	470
711.795	513
712.239	555
712.682	592
713.126	603
713.569	608
714.012	567
714.456	475
714.899	462
715.342	416
715.786	419
716.229	420
716.672	403
717.115	419
717.558	398
718.002	414
718.445	436
718.888	462
719.331	455
719.774	470
720.217	466
720.66	419
721.103	435
721.546	433
721.989	406
722.432	395
722.874	408
723.317	383
723.76	404
724.203	450
724.645	615
725.088	717
725.531	735
725.974	741
726.416	781
726.859	495
727.301	414
727.744	396
728.187	406
728.629	365
729.071	408
729.514	419
729.956	436
730.399	420
730.841	464
731.283	428
731.726	436
732.168	440
732.61	440
733.053	468
733.495	508
733.937	546
734.379	622
734.821	736
735.263	998
735.705	1727
736.148	2715
736.59	3182
737.032	2987
737.474	3260
737.916	1577
738.357	772
738.799	534
739.241	473
739.683	483
740.125	487
740.567	479
741.008	496
741.45	544
741.892	540
742.334	600
742.775	542
743.217	568
743.658	492
744.1	466
744.542	540
744.983	544
745.425	554
745.866	547
746.307	511
746.749	486
747.19	607
747.632	992
748.073	1882
748.514	2876
748.956	3507
749.397	4782
749.838	3898
750.279	3150
750.72	2361
751.162	1079
751.603	596
752.044	451
752.485	373
752.926	344
753.367	341
753.808	324
754.249	334
754.69	337
755.131	325
755.572	333
756.013	344
756.453	341
756.894	328
757.335	350
757.776	342
758.216	343
758.657	353
759.098	396
759.538	449
759.979	538
760.42	824
760.86	1819
761.301	4186
761.741	6343
762.182	6483
762.622	6106
763.063	2833
763.503	1132
763.943	630
764.384	498
764.824	472
765.264	476
765.705	379
766.145	337
766.585	327
767.025	342
767.465	350
767.906	351
768.346	377
768.786	387
769.226	455
769.666	684
770.106	1450
770.546	2534
770.986	2686
771.426	2667
771.866	1520
772.306	680
772.745	416
773.185	334
773.625	318
774.065	316
774.505	350
774.944	526
775.384	806
775.824	951
776.263	950
776.703	666
777.142	401
777.582	303
778.021	261
778.461	249
778.9	246
779.34	270
779.779	255
780.219	236
780.658	240
781.097	248
781.537	228
781.976	243
782.415	228
782.855	232
783.294	217
783.733	243
784.172	237
784.611	216
785.05	236
785.489	235
785.928	261
786.367	212
786.806	268
787.245	241
787.684	249
788.123	276
788.562	269
789.001	261
789.44	236
789.879	261
790.317	246
790.756	254
791.195	271
791.634	332
792.072	452
792.511	889
792.95	1874
793.388	2372
793.827	2139
794.265	1224
794.704	632
795.142	360
795.581	305
796.019	264
796.458	278
796.896	258
797.334	280
797.773	334
798.211	489
798.649	932
799.087	1537
799.526	2338
799.964	2660
800.402	2218
800.84	1307
801.278	694
801.716	383
802.154	310
802.592	286
803.03	297
803.468	260
803.906	288
804.344	280
804.782	281
805.22	277
805.658	268
806.096	289
806.533	306
806.971	353
807.409	456
807.847	720
808.284	1569
808.722	3079
809.16	4284
809.597	6016
810.035	7563
810.472	6500
810.91	3590
811.347	1729
811.785	792
812.222	496
812.66	379
813.097	312
813.535	290
813.972	266
814.409	254
814.846	222
815.284	228
815.721	234
816.158	254
816.595	278
817.032	346
817.47	346
817.907	314
818.344	260
818.781	233
819.218	268
819.655	314
820.092	413
820.529	442
820.966	372
821.403	296
821.839	244
822.276	248
822.713	272
823.15	315
823.587	288
824.023	360
824.46	740
824.897	1409
825.333	1472
825.77	887
826.206	518
826.643	325
827.08	239
827.516	217
827.953	203
828.389	186
828.825	187
829.262	184
829.698	182
830.135	191
830.571	162
831.007	173
831.443	169
831.88	175
832.316	172
832.752	190
833.188	176
833.624	160
834.06	174
834.497	169
834.933	184
835.369	177
835.805	192
836.241	198
836.677	212
837.112	215
837.548	239
837.984	301
838.42	470
838.856	1120
839.292	2364
839.727	2597
840.163	1736
840.599	2059
841.034	3028
841.47	2322
841.906	1337
842.341	762
842.777	444
843.212	406
843.648	340
844.083	260
844.519	221
844.954	176
845.39	164
845.825	155
846.261	150
846.696	143
847.131	163
847.566	173
848.002	154
848.437	159
848.872	162
849.307	183
849.742	237
850.177	436
850.613	938
851.048	997
851.483	581
851.918	398
852.353	247
852.788	195
853.223	160
853.657	172
854.092	143
854.527	146
854.962	144
855.397	140
855.832	142
856.266	168
856.701	152
857.136	143
857.57	162
858.005	171
858.44	162
858.874	163
859.309	143
859.743	156
860.178	174
860.612	156
861.047	158
861.481	211
861.915	187
862.35	167
862.784	156
863.218	147
863.653	155
864.087	158
864.521	164
864.955	184
865.39	316
865.824	291
866.258	282
866.692	388
867.126	384
867.56	296
867.994	229
868.428	165
868.862	182
869.296	182
869.73	193
870.164	179
870.598	178
871.031	156
871.465	128
871.899	130
872.333	120
872.766	114
873.2	131
873.634	151
874.067	115
874.501	114
874.935	136
875.368	133
875.802	115
876.235	133
876.669	121
877.102	103
877.535	108
877.969	126
878.402	110
878.836	102
879.269	108
879.702	139
880.135	112
880.569	122
881.002	116
881.435	117
881.868	104
882.301	123
882.734	124
883.167	126
883.601	119
884.034	108
884.467	122
884.899	115
885.332	105
885.765	115
886.198	99
886.631	105
887.064	90
887.497	109
887.929	102
888.362	94
888.795	119
889.228	117
889.66	110
890.093	106
890.526	110
890.958	108
891.391	129
891.823	111
892.256	108
892.688	106
893.121	114
893.553	103
893.985	115
894.418	118
894.85	110
895.282	101
895.715	91
896.147	81
896.579	112
897.011	102
897.444	121
897.876	108
898.308	100
898.74	119
899.172	103
899.604	104
900.036	88
900.468	113
900.9	109
901.332	97
901.764	117
902.196	111
902.628	109
903.06	127
903.491	143
903.923	138
904.355	119
904.787	127
905.218	113
905.65	128
906.082	112
906.513	105
906.945	116
907.376	111
907.808	102
908.239	98
908.671	118
909.102	109
909.534	126
909.965	184
910.397	264
910.828	586
911.259	632
911.691	431
912.122	293
912.553	193
912.984	133
913.415	118
913.847	134
914.278	133
914.709	110
915.14	106
915.571	112
916.002	120
916.433	116
916.864	119
917.295	128
917.726	112
918.157	121
918.587	127
919.018	107
919.449	118
919.88	122
920.311	136
920.741	166
921.172	320
921.603	266
922.033	204
922.464	152
922.895	118
923.325	110
923.756	95
924.186	121
924.617	116
925.047	139
925.478	160
925.908	137
926.338	118
926.769	103
927.199	111
927.629	111
928.06	104
928.49	106
928.92	101
929.35	106
929.78	92
930.21	103
930.641	104
931.071	103
931.501	106
931.931	111
932.361	100
932.791	89
933.221	91
933.651	102
934.08	102
934.51	109
934.94	99
935.37	110
935.8	118
936.229	93
936.659	98
937.089	90
937.519	101
937.948	130
938.378	124
938.807	96
939.237	92
939.666	102
940.096	89
940.525	98
940.955	97
941.384	94
941.814	85
942.243	95
942.672	82
943.102	105
943.531	114
943.96	94
944.39	68
944.819	100
945.248	70
945.677	102
946.106	107
946.535	70
946.964	96
947.393	69
947.822	75
948.251	94
948.68	87
949.109	100
949.538	106
949.967	99
950.396	83
950.825	84
951.254	96
951.682	90
952.111	98
952.54	82
952.969	100
953.397	94
953.826	91
954.254	92
954.683	98
955.112	87
955.54	82
955.969	118
956.397	83
956.826	82
957.254	81
957.682	79
958.111	75
958.539	84
958.967	84
959.396	95
959.824	79
960.252	95
960.68	80
961.109	99
961.537	97
961.965	88
962.393	86
962.821	89
963.249	91
963.677	102
964.105	119
964.533	157
964.961	135
965.389	118
965.817	114
966.245	80
966.672	83
967.1	91
967.528	74
967.956	90
968.383	81
968.811	96
969.239	101
969.666	70
970.094	86
970.522	104
970.949	88
971.377	101
971.804	90
972.232	79
972.659	81
973.087	71
973.514	92
973.941	64
974.369	79
974.796	98
975.223	81
975.651	84
976.078	75
976.505	92
976.932	110
977.359	88
977.786	105
978.214	94
978.641	104
979.068	95
979.495	105
979.922	83
980.349	93
980.776	100
981.202	92
981.629	84
982.056	94
982.483	94
982.91	84
983.337	90
983.763	86
984.19	101
984.617	79
985.043	83
985.47	79
985.897	81
986.323	96
986.75	82
987.176	86
987.603	90
988.029	93
988.456	78
988.882	86
989.308	94
989.735	87
990.161	79
990.587	91
991.014	76
991.44	97
991.866	76
992.292	90
992.719	68
993.145	100
993.571	75
993.997	84
994.423	88
994.849	85
995.275	91
995.701	77
996.127	94
996.553	73
996.979	87
997.405	100
997.83	91
998.256	81
998.682	89
999.108	76
999.534	84
999.959	85
1000.385	100
1000.811	78
1001.236	76
1001.662	74
1002.087	77
1002.513	83
1002.938	105
1003.364	94
1003.789	77
1004.215	92
1004.64	87
1005.066	77
1005.491	79
1005.916	97
1006.342	83
1006.767	75
1007.192	70
1007.617	73
1008.042	88
1008.468	92
1008.893	74
1009.318	90
1009.743	88
1010.168	93
1010.593	87
1011.018	75
1011.443	93
1011.868	84
1012.293	96
1012.718	87
1013.143	82
1013.567	86
1013.992	96
1014.417	83
1014.842	81
1015.267	77
1015.691	96
1016.116	81
1016.541	83
1016.965	87
1017.39	57
1017.814	77
1018.239	94
1018.663	70
1019.088	76
1019.512	93
1019.937	66
1020.361	100
1020.785	85
1021.21	96
1021.634	88
1022.058	84
1022.483	77
1022.907	102
1023.331	82
1023.755	82
1024.179	83
1024.604	75
1025.028	88
1025.452	88
1025.876	89
1026.3	83
1026.724	82
1027.148	109
1027.572	102
1027.996	88
1028.42	70
1028.843	84
1029.267	86
1029.691	79
1030.115	91
1030.539	98
1030.962	85
1031.386	84
1031.81	95
1032.233	78
1032.657	74
1033.08	76
1033.504	89
1033.927	78
1034.351	78
1034.774	86
1035.198	80
1035.621	98
1036.045	100
1036.468	89
1036.891	72
1037.315	59
1037.738	92
1038.161	88
1038.584	101
1039.008	94
1039.431	81
1039.854	84
1040.277	76
1040.7	76
1041.123	83
1041.546	91
1041.969	70
1042.392	90
1042.815	96
1043.238	91
1043.661	90
1044.084	92
1044.507	91
1044.93	99
1045.352	80
1045.775	101
1046.198	94
1046.621	91
1047.043	79
1047.466	77
1047.889	78
1048.311	80
1048.734	90
1049.156	87
1049.579	80
1050.001	85
1050.424	77
1050.846	85
1051.269	85
1051.691	95
1052.113	76
1052.536	81
1052.958	70
1053.38	100
1053.802	73
1054.225	84
1054.647	89
1055.069	84
1055.491	68
1055.913	70
1056.335	66
1056.757	65
1057.179	90
1057.601	69
1058.023	83
1058.445	73
1058.867	86
1059.289	92
1059.711	74
1060.133	72
1060.555	78
1060.976	88
1061.398	91
1061.82	82
1062.241	89
1062.663	65
1063.085	84
1063.506	78
1063.928	83
1064.35	72
1064.771	93
1065.193	84
1065.614	79
1066.035	78
1066.457	80
1066.878	82
1067.3	80
1067.721	92
1068.142	85
1068.564	77
1068.985	73
1069.406	80
1069.827	86
1070.248	82
1070.67	86
1071.091	91
1071.512	81
1071.933	83
1072.354	87
1072.775	80
1073.196	64
1073.617	73
1074.038	75
1074.459	73
1074.88	89
1075.3	73
1075.721	93
1076.142	74
1076.563	64
1076.983	75
1077.404	72
1077.825	86
1078.246	88
1078.666	86
1079.087	74
1079.507	90
1079.928	79
1080.348	85
1080.769	97
1081.189	99
1081.61	69
1082.03	90
1082.451	72
1082.871	86
1083.291	83
1083.711	66
1084.132	76
1084.552	72
1084.972	75
1085.392	80
1085.813	73
1086.233	79
1086.653	88
1087.073	82
1087.493	69
1087.913	72
1088.333	95
1088.753	66
1089.173	87
1089.593	82
1090.013	76
1090.433	88
1090.852	95
1091.272	99
1091.692	82
1092.112	84
1092.531	90
1092.951	79
1093.371	71
1093.79	85
1094.21	82
1094.63	72
1095.049	80
1095.469	74
1095.888	85
1096.308	72
1096.727	86
1097.146	74
1097.566	70
1097.985	69
1098.405	84
1098.824	79
1099.243	86
1099.662	93
1100.082	93
1100.501	89
1100.92	78
1101.339	79
1101.758	86
