Data from 20170802-ORNL-NYSim-Air_HRD10391_10-36-52-622.txt Node
Date: Wed Aug 02 10:36:52 EDT 2017
User: Ender
Spectrometer: HR+D1039
Trigger mode: 0
Integration Time (sec): 1.510000E-3
Scans to average: 1
Electric dark correction enabled: true
Nonlinearity correction enabled: false
Boxcar width: 0
XAxis mode: Wavelengths
Number of Pixels in Spectrum: 2048
>>>>>Begin Spectral Data<<<<<
187.836	3
188.309	3
188.782	3
189.255	-11
189.728	-8
190.201	-13
190.674	-18
191.147	-13
191.619	5
192.092	-14
192.565	0
193.038	2
193.511	11
193.984	3
194.456	15
194.929	15
195.402	0
195.874	23
196.347	28
196.82	16
197.292	23
197.765	27
198.237	33
198.71	17
199.182	37
199.655	52
200.127	60
200.6	70
201.072	62
201.544	79
202.017	55
202.489	87
202.961	69
203.433	65
203.906	87
204.378	80
204.85	92
205.322	75
205.794	95
206.266	79
206.739	82
207.211	72
207.683	75
208.155	74
208.627	75
209.099	90
209.57	84
210.042	87
210.514	79
210.986	80
211.458	87
211.93	90
212.402	103
212.873	78
213.345	86
213.817	78
214.288	77
214.76	87
215.232	88
215.703	87
216.175	96
216.646	84
217.118	77
217.589	89
218.061	89
218.532	84
219.004	101
219.475	84
219.946	73
220.418	61
220.889	72
221.36	85
221.832	84
222.303	81
222.774	91
223.245	71
223.717	85
224.188	78
224.659	65
225.13	82
225.601	93
226.072	80
226.543	72
227.014	58
227.485	85
227.956	87
228.427	90
228.898	88
229.369	78
229.839	79
230.31	84
230.781	83
231.252	85
231.722	98
232.193	69
232.664	76
233.135	80
233.605	77
234.076	83
234.546	77
235.017	67
235.487	70
235.958	97
236.428	94
236.899	77
237.369	86
237.84	84
238.31	97
238.78	82
239.251	86
239.721	85
240.191	92
240.662	82
241.132	84
241.602	86
242.072	97
242.542	86
243.013	93
243.483	81
243.953	88
244.423	87
244.893	76
245.363	94
245.833	79
246.303	96
246.773	79
247.243	75
247.712	99
248.182	91
248.652	92
249.122	99
249.592	87
250.061	96
250.531	111
251.001	100
251.471	101
251.94	97
252.41	79
252.879	99
253.349	101
253.818	74
254.288	103
254.757	95
255.227	98
255.696	95
256.166	99
256.635	114
257.105	89
257.574	90
258.043	84
258.513	94
258.982	96
259.451	100
259.92	93
260.389	102
260.859	92
261.328	100
261.797	107
262.266	110
262.735	106
263.204	87
263.673	100
264.142	101
264.611	106
265.08	99
265.549	74
266.018	94
266.487	91
266.955	107
267.424	93
267.893	95
268.362	102
268.83	96
269.299	109
269.768	91
270.236	102
270.705	113
271.174	101
271.642	98
272.111	100
272.579	98
273.048	97
273.516	101
273.985	101
274.453	116
274.922	125
275.39	113
275.858	111
276.327	114
276.795	116
277.263	103
277.731	123
278.2	115
278.668	126
279.136	118
279.604	112
280.072	118
280.54	113
281.008	121
281.477	100
281.945	91
282.413	116
282.881	106
283.348	110
283.816	106
284.284	108
284.752	103
285.22	97
285.688	131
286.156	122
286.623	113
287.091	121
287.559	107
288.026	125
288.494	114
288.962	111
289.429	114
289.897	128
290.364	99
290.832	131
291.3	121
291.767	123
292.234	104
292.702	115
293.169	112
293.637	127
294.104	117
294.571	113
295.039	104
295.506	115
295.973	111
296.44	117
296.908	147
297.375	116
297.842	119
298.309	128
298.776	123
299.243	139
299.71	135
300.177	142
300.644	127
301.111	120
301.578	135
302.045	114
302.512	135
302.979	125
303.446	146
303.913	132
304.379	149
304.846	140
305.313	140
305.78	135
306.246	124
306.713	128
307.18	142
307.646	142
308.113	147
308.579	132
309.046	155
309.512	162
309.979	136
310.445	133
310.912	131
311.378	153
311.845	135
312.311	161
312.777	149
313.244	128
313.71	136
314.176	138
314.642	143
315.109	150
315.575	150
316.041	148
316.507	157
316.973	140
317.439	163
317.905	151
318.371	165
318.837	159
319.303	155
319.769	158
320.235	164
320.701	166
321.167	166
321.633	149
322.099	164
322.564	166
323.03	161
323.496	182
323.962	170
324.427	173
324.893	156
325.359	158
325.824	166
326.29	163
326.755	155
327.221	165
327.686	177
328.152	160
328.617	161
329.083	171
329.548	177
330.014	168
330.479	154
330.944	169
331.41	222
331.875	167
332.34	192
332.805	167
333.271	176
333.736	182
334.201	187
334.666	179
335.131	179
335.596	147
336.061	177
336.526	193
336.991	173
337.456	171
337.921	165
338.386	182
338.851	191
339.316	183
339.781	184
340.246	174
340.711	181
341.175	180
341.64	180
342.105	197
342.569	181
343.034	213
343.499	187
343.963	188
344.428	206
344.893	207
345.357	212
345.822	179
346.286	193
346.751	210
347.215	198
347.679	221
348.144	239
348.608	230
349.073	237
349.537	219
350.001	213
350.465	213
350.93	212
351.394	228
351.858	215
352.322	215
352.786	252
353.25	222
353.715	220
354.179	238
354.643	265
355.107	259
355.571	233
356.035	240
356.498	226
356.962	224
357.426	256
357.89	251
358.354	254
358.818	238
359.281	247
359.745	235
360.209	259
360.673	259
361.136	228
361.6	269
362.064	253
362.527	235
362.991	237
363.454	233
363.918	268
364.381	262
364.845	247
365.308	253
365.772	269
366.235	238
366.698	259
367.162	249
367.625	247
368.088	256
368.552	275
369.015	259
369.478	278
369.941	284
370.404	287
370.867	272
371.331	241
371.794	281
372.257	297
372.72	275
373.183	282
373.646	272
374.109	286
374.572	274
375.035	306
375.497	287
375.96	279
376.423	293
376.886	279
377.349	309
377.811	296
378.274	298
378.737	322
379.199	309
379.662	286
380.125	323
380.587	319
381.05	321
381.512	333
381.975	314
382.437	335
382.9	320
383.362	304
383.825	331
384.287	327
384.75	325
385.212	340
385.674	339
386.136	347
386.599	341
387.061	365
387.523	358
387.985	341
388.447	359
388.91	340
389.372	340
389.834	348
390.296	326
390.758	340
391.22	333
391.682	345
392.144	356
392.606	369
393.068	351
393.529	387
393.991	366
394.453	358
394.915	367
395.377	375
395.838	359
396.3	359
396.762	368
397.224	354
397.685	352
398.147	342
398.608	365
399.07	366
399.531	379
399.993	387
400.454	391
400.916	356
401.377	369
401.839	389
402.3	383
402.762	414
403.223	407
403.684	434
404.145	405
404.607	398
405.068	420
405.529	424
405.99	433
406.451	421
406.913	395
407.374	406
407.835	415
408.296	427
408.757	420
409.218	433
409.679	406
410.14	427
410.601	474
411.062	460
411.522	460
411.983	458
412.444	484
412.905	467
413.366	496
413.826	505
414.287	513
414.748	634
415.208	604
415.669	562
416.13	499
416.59	489
417.051	509
417.511	518
417.972	591
418.432	626
418.893	653
419.353	639
419.814	502
420.274	469
420.734	465
421.195	473
421.655	471
422.115	494
422.576	493
423.036	494
423.496	499
423.956	522
424.416	508
424.876	592
425.336	606
425.797	571
426.257	581
426.717	582
427.177	519
427.637	557
428.097	561
428.556	553
429.016	616
429.476	596
429.936	613
430.396	610
430.856	609
431.315	619
431.775	671
432.235	691
432.694	700
433.154	679
433.614	687
434.073	670
434.533	600
434.993	561
435.452	583
435.912	570
436.371	585
436.83	574
437.29	544
437.749	551
438.209	538
438.668	544
439.127	525
439.587	538
440.046	508
440.505	515
440.964	551
441.424	556
441.883	574
442.342	558
442.801	531
443.26	511
443.719	501
444.178	485
444.637	495
445.096	533
445.555	538
446.014	509
446.473	514
446.932	540
447.391	533
447.849	557
448.308	507
448.767	511
449.226	546
449.685	542
450.143	565
450.602	572
451.061	555
451.519	534
451.978	523
452.436	549
452.895	539
453.353	547
453.812	523
454.27	551
454.729	557
455.187	530
455.646	543
456.104	517
456.562	525
457.021	520
457.479	506
457.937	559
458.395	572
458.854	557
459.312	544
459.77	565
460.228	585
460.686	554
461.144	597
461.602	590
462.06	590
462.518	576
462.976	565
463.434	597
463.892	581
464.35	575
464.808	641
465.266	597
465.724	641
466.181	615
466.639	608
467.097	641
467.555	624
468.012	663
468.47	669
468.928	689
469.385	684
469.843	693
470.3	697
470.758	732
471.215	739
471.673	753
472.13	750
472.588	766
473.045	753
473.503	769
473.96	818
474.417	837
474.875	833
475.332	892
475.789	911
476.246	925
476.704	981
477.161	963
477.618	987
478.075	1084
478.532	1158
478.989	1213
479.446	1349
479.903	1377
480.36	1525
480.817	1595
481.274	1711
481.731	1899
482.188	1991
482.645	2143
483.102	2261
483.558	2419
484.015	2509
484.472	2555
484.929	2439
485.385	2344
485.842	2277
486.299	2222
486.755	2057
487.212	1841
487.668	1695
488.125	1608
488.582	1463
489.038	1378
489.494	1357
489.951	1293
490.407	1264
490.864	1244
491.32	1225
491.776	1193
492.233	1228
492.689	1172
493.145	1179
493.602	1165
494.058	1141
494.514	1140
494.97	1143
495.426	1183
495.882	1167
496.338	1175
496.794	1165
497.251	1175
497.707	1155
498.163	1176
498.618	1175
499.074	1203
499.53	1214
499.986	1197
500.442	1204
500.898	1189
501.354	1206
501.809	1185
502.265	1201
502.721	1190
503.177	1215
503.632	1235
504.088	1206
504.543	1194
504.999	1228
505.455	1231
505.91	1207
506.366	1225
506.821	1204
507.277	1231
507.732	1217
508.187	1257
508.643	1239
509.098	1255
509.553	1271
510.009	1293
510.464	1297
510.919	1306
511.375	1279
511.83	1333
512.285	1327
512.74	1328
513.195	1351
513.65	1439
514.105	1425
514.56	1428
515.015	1426
515.47	1436
515.925	1394
516.38	1448
516.835	1429
517.29	1383
517.745	1441
518.2	1433
518.655	1353
519.109	1337
519.564	1418
520.019	1344
520.474	1334
520.928	1334
521.383	1316
521.838	1303
522.292	1294
522.747	1279
523.201	1299
523.656	1311
524.11	1331
524.565	1269
525.019	1279
525.474	1256
525.928	1299
526.382	1266
526.837	1251
527.291	1279
527.745	1279
528.2	1263
528.654	1267
529.108	1254
529.562	1261
530.016	1242
530.47	1267
530.925	1269
531.379	1276
531.833	1301
532.287	1269
532.741	1259
533.195	1240
533.649	1267
534.103	1248
534.556	1233
535.01	1271
535.464	1277
535.918	1256
536.372	1285
536.826	1232
537.279	1255
537.733	1283
538.187	1301
538.64	1301
539.094	1231
539.548	1293
540.001	1324
540.455	1319
540.908	1303
541.362	1329
541.815	1316
542.269	1352
542.722	1351
543.175	1362
543.629	1411
544.082	1377
544.536	1375
544.989	1407
545.442	1390
545.895	1412
546.349	1398
546.802	1394
547.255	1431
547.708	1369
548.161	1421
548.614	1395
549.067	1459
549.52	1455
549.973	1415
550.426	1374
550.879	1383
551.332	1367
551.785	1417
552.238	1413
552.691	1424
553.144	1443
553.596	1477
554.049	1497
554.502	1517
554.955	1470
555.407	1549
555.86	1539
556.313	1522
556.765	1501
557.218	1491
557.67	1476
558.123	1495
558.576	1462
559.028	1449
559.48	1474
559.933	1481
560.385	1457
560.838	1392
561.29	1381
561.742	1363
562.195	1354
562.647	1316
563.099	1307
563.551	1304
564.004	1329
564.456	1340
564.908	1283
565.36	1237
565.812	1227
566.264	1218
566.716	1253
567.168	1179
567.62	1189
568.072	1173
568.524	1161
568.976	1164
569.428	1156
569.88	1142
570.332	1135
570.784	1203
571.235	1193
571.687	1174
572.139	1192
572.59	1166
573.042	1167
573.494	1220
573.945	1191
574.397	1182
574.849	1168
575.3	1178
575.752	1139
576.203	1135
576.655	1151
577.106	1125
577.557	1117
578.009	1123
578.46	1107
578.912	1109
579.363	1125
579.814	1122
580.265	1101
580.717	1119
581.168	1095
581.619	1131
582.07	1107
582.521	1120
582.972	1081
583.423	1116
583.875	1125
584.326	1178
584.777	1145
585.227	1137
585.678	1158
586.129	1155
586.58	1169
587.031	1196
587.482	1235
587.933	1262
588.384	1255
588.834	1235
589.285	1213
589.736	1259
590.186	1221
590.637	1245
591.088	1218
591.538	1215
591.989	1179
592.439	1175
592.89	1171
593.34	1145
593.791	1124
594.241	1107
594.692	1115
595.142	1114
595.593	1110
596.043	1125
596.493	1153
596.943	1146
597.394	1128
597.844	1187
598.294	1195
598.744	1218
599.195	1261
599.645	1329
600.095	1448
600.545	1489
600.995	1493
601.445	1553
601.895	1631
602.345	1704
602.795	1647
603.245	1662
603.695	1581
604.145	1486
604.594	1410
605.044	1324
605.494	1285
605.944	1228
606.393	1197
606.843	1136
607.293	1123
607.743	1153
608.192	1136
608.642	1128
609.091	1144
609.541	1172
609.99	1150
610.44	1157
610.889	1098
611.339	1130
611.788	1080
612.238	1117
612.687	1107
613.136	1060
613.586	1118
614.035	1122
614.484	1093
614.933	1108
615.383	1128
615.832	1074
616.281	1055
616.73	1011
617.179	1055
617.628	1040
618.077	968
618.526	983
618.975	991
619.424	946
619.873	986
620.322	971
620.771	969
621.22	931
621.669	929
622.118	909
622.567	908
623.015	881
623.464	897
623.913	874
624.361	873
624.81	886
625.259	899
625.707	857
626.156	865
626.604	928
627.053	882
627.501	896
627.95	900
628.398	907
628.847	912
629.295	895
629.744	886
630.192	897
630.64	865
631.089	866
631.537	842
631.985	835
632.433	781
632.881	795
633.33	837
633.778	832
634.226	833
634.674	813
635.122	836
635.57	817
636.018	877
636.466	869
636.914	860
637.362	892
637.81	882
638.258	888
638.705	961
639.153	961
639.601	961
640.049	951
640.497	1045
640.944	1015
641.392	1015
641.84	932
642.287	923
642.735	876
643.182	867
643.63	881
644.078	874
644.525	895
644.973	895
645.42	931
645.867	969
646.315	1004
646.762	1034
647.21	1035
647.657	1093
648.104	1141
648.551	1191
648.999	1234
649.446	1336
649.893	1477
650.34	1662
650.787	2043
651.234	2591
651.682	3404
652.129	4751
652.576	6784
653.023	9339
653.47	11395
653.917	12739
654.363	13518
654.81	14186
655.257	14786
655.704	11482
656.151	6871
656.598	4407
657.044	3143
657.491	2436
657.938	1936
658.385	1664
658.831	1443
659.278	1303
659.724	1206
660.171	1085
660.618	1019
661.064	935
661.511	947
661.957	873
662.404	857
662.85	847
663.296	835
663.743	833
664.189	818
664.635	811
665.082	798
665.528	798
665.974	792
666.42	760
666.867	761
667.313	715
667.759	727
668.205	697
668.651	727
669.097	681
669.543	693
669.989	713
670.435	701
670.881	701
671.327	748
671.773	773
672.219	857
672.665	892
673.11	901
673.556	939
674.002	939
674.448	949
674.893	858
675.339	745
675.785	701
676.23	679
676.676	628
677.122	620
677.567	555
678.013	559
678.458	599
678.904	579
679.349	585
679.794	564
680.24	571
680.685	573
681.131	599
681.576	552
682.021	567
682.466	553
682.912	559
683.357	616
683.802	603
684.247	666
684.692	744
685.137	743
685.583	770
686.028	807
686.473	781
686.918	724
687.363	640
687.807	613
688.252	593
688.697	563
689.142	569
689.587	559
690.032	579
690.477	559
690.921	606
691.366	617
691.811	684
692.255	661
692.7	766
693.145	947
693.589	1401
694.034	1872
694.478	2125
694.923	1897
695.367	2385
695.812	2226
696.256	956
696.701	637
697.145	565
697.59	539
698.034	526
698.478	523
698.922	538
699.367	540
699.811	540
700.255	575
700.699	631
701.143	675
701.588	719
702.032	743
702.476	767
702.92	799
703.364	924
703.808	1323
704.252	1761
704.696	1979
705.14	1858
705.584	2295
706.027	1929
706.471	957
706.915	656
707.359	580
707.803	558
708.246	496
708.69	511
709.134	490
709.577	482
710.021	484
710.465	527
710.908	475
711.352	505
711.795	533
712.239	570
712.682	639
713.126	581
713.569	661
714.012	587
714.456	518
714.899	496
715.342	472
715.786	464
716.229	409
716.672	421
717.115	391
717.558	440
718.002	435
718.445	418
718.888	434
719.331	482
719.774	486
720.217	474
720.66	467
721.103	450
721.546	432
721.989	404
722.432	398
722.874	393
723.317	407
723.76	429
724.203	467
724.645	618
725.088	719
725.531	778
725.974	763
726.416	838
726.859	551
727.301	429
727.744	404
728.187	407
728.629	433
729.071	425
729.514	425
729.956	447
730.399	451
730.841	456
731.283	449
731.726	438
732.168	452
732.61	481
733.053	491
733.495	522
733.937	605
734.379	600
734.821	761
735.263	1033
735.705	1722
736.148	2833
736.59	3280
737.032	3042
737.474	3351
737.916	1695
738.357	795
738.799	558
739.241	510
739.683	512
740.125	539
740.567	528
741.008	534
741.45	574
741.892	580
742.334	597
742.775	580
743.217	580
743.658	511
744.1	527
744.542	558
744.983	617
745.425	606
745.866	650
746.307	547
746.749	515
747.19	616
747.632	973
748.073	1903
748.514	2965
748.956	3631
749.397	4931
749.838	3949
750.279	3281
750.72	2507
751.162	1147
751.603	589
752.044	451
752.485	399
752.926	397
753.367	349
753.808	360
754.249	363
754.69	349
755.131	324
755.572	353
756.013	316
756.453	343
756.894	361
757.335	353
757.776	342
758.216	356
758.657	366
759.098	383
759.538	447
759.979	558
760.42	861
760.86	1883
761.301	4283
761.741	6410
762.182	6700
762.622	6261
763.063	2895
763.503	1187
763.943	617
764.384	483
764.824	411
765.264	406
765.705	381
766.145	372
766.585	328
767.025	319
767.465	330
767.906	313
768.346	325
768.786	361
769.226	441
769.666	721
770.106	1475
770.546	2625
770.986	2795
771.426	2813
771.866	1601
772.306	744
772.745	429
773.185	338
773.625	323
774.065	319
774.505	386
774.944	615
775.384	955
775.824	1067
776.263	1051
776.703	738
777.142	442
777.582	287
778.021	257
778.461	267
778.9	265
779.34	260
779.779	231
780.219	251
780.658	264
781.097	243
781.537	241
781.976	227
782.415	231
782.855	246
783.294	209
783.733	247
784.172	213
784.611	256
785.05	239
785.489	241
785.928	236
786.367	271
786.806	261
787.245	281
787.684	277
788.123	270
788.562	297
789.001	260
789.44	240
789.879	269
790.317	262
790.756	255
791.195	285
791.634	317
792.072	456
792.511	900
792.95	1921
793.388	2469
793.827	2170
794.265	1286
794.704	671
795.142	377
795.581	307
796.019	256
796.458	255
796.896	276
797.334	281
797.773	344
798.211	478
798.649	943
799.087	1511
799.526	2429
799.964	2656
800.402	2187
800.84	1372
801.278	723
801.716	431
802.154	301
802.592	291
803.03	287
803.468	301
803.906	306
804.344	291
804.782	279
805.22	279
805.658	284
806.096	288
806.533	292
806.971	361
807.409	483
807.847	709
808.284	1628
808.722	3182
809.16	4473
809.597	6199
810.035	7840
810.472	6748
810.91	3761
811.347	1832
811.785	863
812.222	491
812.66	372
813.097	320
813.535	284
813.972	281
814.409	257
814.846	242
815.284	236
815.721	257
816.158	237
816.595	273
817.032	361
817.47	365
817.907	306
818.344	273
818.781	251
819.218	275
819.655	361
820.092	462
820.529	476
820.966	417
821.403	347
821.839	293
822.276	282
822.713	316
823.15	295
823.587	280
824.023	368
824.46	743
824.897	1406
825.333	1502
825.77	904
826.206	521
826.643	327
827.08	257
827.516	224
827.953	205
828.389	189
828.825	172
829.262	169
829.698	176
830.135	173
830.571	169
831.007	172
831.443	167
831.88	163
832.316	162
832.752	189
833.188	177
833.624	179
834.06	178
834.497	179
834.933	182
835.369	167
835.805	188
836.241	205
836.677	198
837.112	225
837.548	255
837.984	303
838.42	476
838.856	1189
839.292	2421
839.727	2674
840.163	1841
840.599	2096
841.034	3085
841.47	2455
841.906	1405
842.341	757
842.777	474
843.212	462
843.648	372
844.083	291
844.519	213
844.954	175
845.39	188
845.825	179
846.261	167
846.696	159
847.131	136
847.566	171
848.002	146
848.437	170
848.872	167
849.307	199
849.742	233
850.177	456
850.613	935
851.048	1065
851.483	617
851.918	398
852.353	235
852.788	191
853.223	171
853.657	169
854.092	148
854.527	160
854.962	158
855.397	149
855.832	155
856.266	141
856.701	158
857.136	149
857.57	157
858.005	168
858.44	169
858.874	165
859.309	147
859.743	161
860.178	175
860.612	159
861.047	174
861.481	203
861.915	212
862.35	143
862.784	151
863.218	135
863.653	129
864.087	139
864.521	182
864.955	200
865.39	299
865.824	297
866.258	308
866.692	448
867.126	415
867.56	313
867.994	201
868.428	167
868.862	187
869.296	192
869.73	211
870.164	195
870.598	178
871.031	156
871.465	137
871.899	135
872.333	117
872.766	150
873.2	136
873.634	143
874.067	122
874.501	138
874.935	114
875.368	136
875.802	121
876.235	136
876.669	131
877.102	126
877.535	125
877.969	115
878.402	126
878.836	121
879.269	115
879.702	101
880.135	119
880.569	142
881.002	120
881.435	121
881.868	119
882.301	102
882.734	115
883.167	88
883.601	125
884.034	114
884.467	125
884.899	121
885.332	115
885.765	107
886.198	119
886.631	113
887.064	103
887.497	105
887.929	104
888.362	103
888.795	127
889.228	91
889.66	116
890.093	107
890.526	100
890.958	109
891.391	117
891.823	99
892.256	104
892.688	104
893.121	104
893.553	126
893.985	127
894.418	114
894.85	103
895.282	104
895.715	107
896.147	110
896.579	103
897.011	111
897.444	122
897.876	132
898.308	119
898.74	94
899.172	118
899.604	100
900.036	108
900.468	101
900.9	118
901.332	109
901.764	123
902.196	105
902.628	123
903.06	124
903.491	143
903.923	140
904.355	112
904.787	111
905.218	125
905.65	125
906.082	98
906.513	120
906.945	106
907.376	105
907.808	107
908.239	113
908.671	127
909.102	127
909.534	137
909.965	164
910.397	222
910.828	589
911.259	665
911.691	444
912.122	303
912.553	207
912.984	123
913.415	125
913.847	113
914.278	106
914.709	143
915.14	103
915.571	109
916.002	104
916.433	106
916.864	115
917.295	111
917.726	114
918.157	118
918.587	115
919.018	111
919.449	121
919.88	109
920.311	128
920.741	173
921.172	329
921.603	275
922.033	203
922.464	169
922.895	118
923.325	117
923.756	105
924.186	120
924.617	130
925.047	134
925.478	158
925.908	148
926.338	125
926.769	100
927.199	107
927.629	103
928.06	100
928.49	96
928.92	97
929.35	77
929.78	79
930.21	84
930.641	78
931.071	92
931.501	89
931.931	99
932.361	106
932.791	92
933.221	81
933.651	77
934.08	108
934.51	102
934.94	107
935.37	104
935.8	103
936.229	107
936.659	99
937.089	114
937.519	119
937.948	115
938.378	118
938.807	107
939.237	99
939.666	100
940.096	87
940.525	87
940.955	87
941.384	84
941.814	83
942.243	89
942.672	90
943.102	99
943.531	110
943.96	109
944.39	83
944.819	107
945.248	86
945.677	87
946.106	83
946.535	78
946.964	99
947.393	69
947.822	83
948.251	83
948.68	92
949.109	71
949.538	115
949.967	78
950.396	73
950.825	77
951.254	74
951.682	74
952.111	73
952.54	86
952.969	101
953.397	79
953.826	73
954.254	95
954.683	87
955.112	83
955.54	94
955.969	94
956.397	89
956.826	81
957.254	81
957.682	64
958.111	84
958.539	99
958.967	89
959.396	101
959.824	92
960.252	88
960.68	73
961.109	83
961.537	99
961.965	72
962.393	80
962.821	88
963.249	92
963.677	95
964.105	95
964.533	154
964.961	133
965.389	102
965.817	109
966.245	93
966.672	84
967.1	78
967.528	92
967.956	102
968.383	75
968.811	89
969.239	84
969.666	80
970.094	95
970.522	84
970.949	75
971.377	82
971.804	84
972.232	103
972.659	99
973.087	81
973.514	101
973.941	93
974.369	84
974.796	76
975.223	87
975.651	88
976.078	88
976.505	85
976.932	89
977.359	125
977.786	94
978.214	83
978.641	91
979.068	85
979.495	81
979.922	83
980.349	77
980.776	93
981.202	99
981.629	85
982.056	82
982.483	91
982.91	79
983.337	91
983.763	91
984.19	74
984.617	102
985.043	92
985.47	90
985.897	103
986.323	83
986.75	89
987.176	107
987.603	86
988.029	93
988.456	81
988.882	82
989.308	88
989.735	93
990.161	90
990.587	91
991.014	92
991.44	69
991.866	96
992.292	87
992.719	81
993.145	79
993.571	95
993.997	75
994.423	71
994.849	87
995.275	91
995.701	88
996.127	95
996.553	75
996.979	82
997.405	64
997.83	71
998.256	87
998.682	96
999.108	75
999.534	85
999.959	89
1000.385	94
1000.811	83
1001.236	95
1001.662	95
1002.087	92
1002.513	93
1002.938	92
1003.364	83
1003.789	93
1004.215	97
1004.64	80
1005.066	84
1005.491	85
1005.916	75
1006.342	78
1006.767	88
1007.192	86
1007.617	96
1008.042	84
1008.468	92
1008.893	84
1009.318	91
1009.743	108
1010.168	99
1010.593	79
1011.018	92
1011.443	83
1011.868	89
1012.293	84
1012.718	91
1013.143	89
1013.567	103
1013.992	78
1014.417	94
1014.842	96
1015.267	78
1015.691	73
1016.116	80
1016.541	76
1016.965	79
1017.39	91
1017.814	95
1018.239	88
1018.663	76
1019.088	79
1019.512	75
1019.937	67
1020.361	74
1020.785	80
1021.21	75
1021.634	87
1022.058	91
1022.483	65
1022.907	73
1023.331	83
1023.755	83
1024.179	92
1024.604	89
1025.028	98
1025.452	92
1025.876	94
1026.3	92
1026.724	96
1027.148	81
1027.572	79
1027.996	82
1028.42	83
1028.843	81
1029.267	83
1029.691	77
1030.115	95
1030.539	54
1030.962	85
1031.386	87
1031.81	90
1032.233	87
1032.657	79
1033.08	79
1033.504	80
1033.927	80
1034.351	75
1034.774	77
1035.198	81
1035.621	82
1036.045	85
1036.468	93
1036.891	89
1037.315	79
1037.738	61
1038.161	80
1038.584	79
1039.008	77
1039.431	81
1039.854	78
1040.277	71
1040.7	97
1041.123	80
1041.546	90
1041.969	73
1042.392	71
1042.815	80
1043.238	77
1043.661	71
1044.084	93
1044.507	99
1044.93	90
1045.352	86
1045.775	64
1046.198	63
1046.621	88
1047.043	68
1047.466	84
1047.889	71
1048.311	81
1048.734	78
1049.156	94
1049.579	83
1050.001	83
1050.424	96
1050.846	87
1051.269	88
1051.691	82
1052.113	76
1052.536	92
1052.958	84
1053.38	95
1053.802	93
1054.225	77
1054.647	70
1055.069	81
1055.491	75
1055.913	73
1056.335	85
1056.757	77
1057.179	78
1057.601	71
1058.023	78
1058.445	76
1058.867	85
1059.289	61
1059.711	70
1060.133	76
1060.555	72
1060.976	92
1061.398	78
1061.82	81
1062.241	75
1062.663	73
1063.085	101
1063.506	69
1063.928	77
1064.35	84
1064.771	89
1065.193	73
1065.614	89
1066.035	77
1066.457	95
1066.878	82
1067.3	84
1067.721	90
1068.142	73
1068.564	74
1068.985	88
1069.406	84
1069.827	99
1070.248	89
1070.67	96
1071.091	70
1071.512	80
1071.933	89
1072.354	97
1072.775	90
1073.196	67
1073.617	77
1074.038	67
1074.459	97
1074.88	82
1075.3	83
1075.721	74
1076.142	84
1076.563	82
1076.983	83
1077.404	85
1077.825	93
1078.246	96
1078.666	65
1079.087	72
1079.507	79
1079.928	81
1080.348	94
1080.769	77
1081.189	69
1081.61	86
1082.03	82
1082.451	75
1082.871	92
1083.291	90
1083.711	83
1084.132	92
1084.552	82
1084.972	89
1085.392	83
1085.813	79
1086.233	64
1086.653	71
1087.073	75
1087.493	82
1087.913	93
1088.333	87
1088.753	70
1089.173	72
1089.593	69
1090.013	90
1090.433	78
1090.852	84
1091.272	85
1091.692	74
1092.112	80
1092.531	76
1092.951	92
1093.371	89
1093.79	87
1094.21	101
1094.63	83
1095.049	88
1095.469	75
1095.888	80
1096.308	73
1096.727	76
1097.146	80
1097.566	82
1097.985	76
1098.405	87
1098.824	85
1099.243	69
1099.662	82
1100.082	72
1100.501	93
1100.92	87
1101.339	88
1101.758	73
