Data from 20171114-ORNL-Ar_H_NY_Subt18_08-03-11-289.txt Node
Date: Tue Nov 14 08:03:11 EST 2017
User: Ender
Spectrometer: HR+D1039
Trigger mode: 0
Integration Time (sec): 2.730000E-2
Scans to average: 10
Electric dark correction enabled: true
Nonlinearity correction enabled: false
Boxcar width: 0
XAxis mode: Wavelengths
Number of Pixels in Spectrum: 2048
>>>>>Begin Spectral Data<<<<<
187.836	0.95
188.309	0.95
188.782	0.95
189.255	1.85
189.728	-3.95
190.201	5.65
190.674	-0.65
191.147	5.65
191.619	-6.45
192.092	-0.55
192.565	6.15
193.038	-0.95
193.511	1.45
193.984	-0.25
194.456	-5.05
194.929	2.95
195.402	-6.95
195.874	0.15
196.347	-2.45
196.82	-2.35
197.292	8.85
197.765	1.05
198.237	-6.25
198.71	-3.15
199.182	-2.05
199.655	4.95
200.127	0.75
200.6	-6.65
201.072	-1.25
201.544	-7.75
202.017	-0.95
202.489	0.85
202.961	-1.55
203.433	-3.05
203.906	-6.25
204.378	-7.45
204.85	-6.25
205.322	-8.05
205.794	-6.35
206.266	-3.35
206.739	-3.45
207.211	0.65
207.683	-3.55
208.155	-7.05
208.627	-5.95
209.099	-4.75
209.57	-11.15
210.042	-9.65
210.514	-6.45
210.986	-3.15
211.458	-10.45
211.93	-0.25
212.402	1.65
212.873	-4.65
213.345	-8.75
213.817	-8.25
214.288	-2.55
214.76	-10.05
215.232	-3.55
215.703	-1.75
216.175	4.45
216.646	-1.15
217.118	-8.85
217.589	-7.75
218.061	4.05
218.532	0.15
219.004	2.55
219.475	-4.55
219.946	-3.35
220.418	-3.55
220.889	3.45
221.36	0.65
221.832	-2.95
222.303	-1.45
222.774	-3.75
223.245	-9.85
223.717	-1.55
224.188	-8.75
224.659	0.25
225.13	-5.25
225.601	2.65
226.072	-2.05
226.543	0.95
227.014	-6.05
227.485	-3.25
227.956	-6.35
228.427	0.25
228.898	-1.25
229.369	2.05
229.839	-1.55
230.31	-6.65
230.781	-0.95
231.252	-2.55
231.722	-9.45
232.193	-5.65
232.664	-2.95
233.135	0.45
233.605	-9.05
234.076	-8.05
234.546	-5.75
235.017	2.55
235.487	-6.95
235.958	-4.05
236.428	-5.05
236.899	1.95
237.369	-9.35
237.84	-5.05
238.31	-5.05
238.78	-5.45
239.251	-9.85
239.721	-7.05
240.191	-0.55
240.662	-8.75
241.132	-6.25
241.602	-9.45
242.072	-0.95
242.542	4.15
243.013	-3.55
243.483	5.25
243.953	-4.95
244.423	-2.15
244.893	-8.95
245.363	-5.65
245.833	-1.55
246.303	-6.65
246.773	2.25
247.243	-2.95
247.712	-2.95
248.182	1.75
248.652	-2.05
249.122	-19.05
249.592	-3.85
250.061	1.55
250.531	-0.05
251.001	-9.35
251.471	-1.05
251.94	2.85
252.41	-7.65
252.879	-5.55
253.349	-5.95
253.818	-1.85
254.288	-0.15
254.757	-4.95
255.227	-11.75
255.696	-6.85
256.166	-3.45
256.635	-6.15
257.105	-3.65
257.574	-7.15
258.043	-2.15
258.513	-10.55
258.982	-7.85
259.451	-11.65
259.92	-7.45
260.389	-2.35
260.859	0.95
261.328	6.25
261.797	-2.05
262.266	-3.55
262.735	-0.55
263.204	0.85
263.673	-9.05
264.142	-4.15
264.611	-8.85
265.08	-8.25
265.549	-6.05
266.018	-0.35
266.487	-9.05
266.955	-7.75
267.424	-9.95
267.893	-2.05
268.362	-9.95
268.83	-8.15
269.299	-1.65
269.768	-2.95
270.236	-12.15
270.705	-6.35
271.174	-4.35
271.642	-1.55
272.111	-5.75
272.579	-4.95
273.048	-5.15
273.516	-5.45
273.985	-3.25
274.453	-5.35
274.922	-0.85
275.39	-1.35
275.858	-14.55
276.327	-1.95
276.795	8.75
277.263	-4.05
277.731	0.85
278.2	1.45
278.668	-9.15
279.136	-1.95
279.604	-12.85
280.072	1.05
280.54	-1.85
281.008	-0.25
281.477	0.65
281.945	-1.75
282.413	-2.65
282.881	-2.75
283.348	-2.85
283.816	0.85
284.284	0.85
284.752	1.45
285.22	-1.75
285.688	-0.45
286.156	-4.85
286.623	0.35
287.091	-10.25
287.559	-7.75
288.026	-3.45
288.494	-3.65
288.962	-9.85
289.429	-4.35
289.897	3.15
290.364	-3.65
290.832	-3.35
291.3	-3.55
291.767	-2.45
292.234	-4.35
292.702	-5.25
293.169	-11.95
293.637	4.75
294.104	-7.75
294.571	-8.15
295.039	-12.15
295.506	-3.75
295.973	-3.05
296.44	-2.65
296.908	-3.95
297.375	-9.25
297.842	-2.75
298.309	-7.05
298.776	-8.05
299.243	-12.75
299.71	-10.45
300.177	-5.45
300.644	-1.55
301.111	-5.25
301.578	-2.35
302.045	-11.65
302.512	-9.05
302.979	-0.05
303.446	-2.55
303.913	-7.95
304.379	-6.65
304.846	-2.25
305.313	-2.35
305.78	-5.75
306.246	-4.35
306.713	0.75
307.18	-1.95
307.646	-8.75
308.113	-6.05
308.579	-10.25
309.046	-5.35
309.512	-1.85
309.979	-5.35
310.445	0.95
310.912	-3.45
311.378	1.55
311.845	-6.05
312.311	0.75
312.777	-6.15
313.244	-1.45
313.71	2.75
314.176	-5.65
314.642	-10.25
315.109	-15.75
315.575	-1.55
316.041	2.05
316.507	-9.35
316.973	-1.45
317.439	-0.35
317.905	-3.35
318.371	-1.65
318.837	-1.75
319.303	-10.15
319.769	-7.55
320.235	-3.45
320.701	0.35
321.167	-5.25
321.633	-6.65
322.099	-4.05
322.564	-3.15
323.03	-5.05
323.496	-13.05
323.962	-4.15
324.427	-8.25
324.893	-0.25
325.359	1.75
325.824	-3.35
326.29	-6.15
326.755	-7.95
327.221	-4.85
327.686	-7.55
328.152	-1.15
328.617	-6.85
329.083	-4.85
329.548	4.25
330.014	-2.25
330.479	-1.45
330.944	-5.25
331.41	-3.45
331.875	0.85
332.34	-1.75
332.805	-0.25
333.271	-4.55
333.736	-9.35
334.201	0.25
334.666	1.05
335.131	1.15
335.596	1.75
336.061	-7.15
336.526	-10.85
336.991	-2.65
337.456	1.85
337.921	-6.35
338.386	-5.15
338.851	-8.05
339.316	-3.15
339.781	-3.65
340.246	0.45
340.711	-2.65
341.175	-4.35
341.64	-8.95
342.105	-6.75
342.569	-4.25
343.034	0.75
343.499	-8.05
343.963	-6.65
344.428	-0.95
344.893	2.75
345.357	-3.35
345.822	-1.55
346.286	-4.45
346.751	-1.75
347.215	-4.65
347.679	-5.75
348.144	-0.55
348.608	-0.55
349.073	-6.15
349.537	-7.95
350.001	-7.15
350.465	-1.55
350.93	0.85
351.394	-0.25
351.858	-8.85
352.322	-1.65
352.786	-4.65
353.25	-1.25
353.715	-9.65
354.179	-4.75
354.643	0.35
355.107	-1.35
355.571	0.95
356.035	-5.25
356.498	-4.95
356.962	-9.55
357.426	0.85
357.89	-5.05
358.354	2.65
358.818	-0.95
359.281	0.95
359.745	-9.85
360.209	-8.65
360.673	-11.75
361.136	-8.25
361.6	2.45
362.064	0.15
362.527	1.35
362.991	0.25
363.454	-4.85
363.918	-17.95
364.381	-4.55
364.845	-4.55
365.308	2.95
365.772	-1.75
366.235	-2.65
366.698	-10.95
367.162	-4.75
367.625	-9.75
368.088	-10.05
368.552	-4.95
369.015	-6.05
369.478	4.45
369.941	-0.15
370.404	-7.35
370.867	-3.25
371.331	-3.75
371.794	-8.35
372.257	-10.25
372.72	4.25
373.183	-3.05
373.646	-2.75
374.109	-3.75
374.572	-3.25
375.035	-6.65
375.497	-9.15
375.96	-4.75
376.423	-8.15
376.886	-8.25
377.349	-1.25
377.811	-3.75
378.274	-4.65
378.737	-5.15
379.199	-2.95
379.662	-3.65
380.125	-5.25
380.587	-9.65
381.05	-4.55
381.512	-7.85
381.975	-1.15
382.437	-5.05
382.9	-3.35
383.362	-0.95
383.825	-1.65
384.287	-3.45
384.75	-8.55
385.212	-1.35
385.674	2.15
386.136	-2.45
386.599	-6.25
387.061	-1.65
387.523	-3.35
387.985	-0.05
388.447	1.55
388.91	-9.15
389.372	-2.55
389.834	-0.45
390.296	-3.75
390.758	-2.65
391.22	-4.15
391.682	-1.95
392.144	1.45
392.606	-3.15
393.068	0.85
393.529	0.05
393.991	-10.75
394.453	-10.85
394.915	-4.15
395.377	-3.45
395.838	-0.95
396.3	-4.75
396.762	1.85
397.224	0.55
397.685	1.95
398.147	-5.35
398.608	0.25
399.07	-10.65
399.531	0.35
399.993	-7.85
400.454	0.75
400.916	3.95
401.377	-9.65
401.839	-2.75
402.3	-12.85
402.762	-0.45
403.223	-0.95
403.684	-0.85
404.145	-3.45
404.607	-2.05
405.068	-2.95
405.529	-8.85
405.99	-0.55
406.451	-12.85
406.913	-2.75
407.374	-10.35
407.835	-7.45
408.296	-10.55
408.757	-0.75
409.218	-2.95
409.679	-6.45
410.14	2.05
410.601	0.45
411.062	0.85
411.522	-3.35
411.983	-11.35
412.444	-15.45
412.905	1.25
413.366	-11.25
413.826	-4.65
414.287	-1.55
414.748	-0.55
415.208	-1.95
415.669	-5.15
416.13	0.45
416.59	-4.45
417.051	3.35
417.511	-1.45
417.972	-3.05
418.432	-6.25
418.893	2.15
419.353	3.35
419.814	-1.95
420.274	3.05
420.734	-10.45
421.195	-1.15
421.655	-12.95
422.115	-10.35
422.576	-1.35
423.036	2.85
423.496	-0.85
423.956	-3.65
424.416	0.95
424.876	-4.25
425.336	-5.65
425.797	-3.45
426.257	-6.75
426.717	-8.55
427.177	7.45
427.637	-2.35
428.097	-5.15
428.556	-1.55
429.016	-2.55
429.476	-12.55
429.936	-6.95
430.396	-1.95
430.856	-9.35
431.315	1.65
431.775	-1.45
432.235	3.75
432.694	-8.65
433.154	-4.05
433.614	-0.25
434.073	-6.45
434.533	0.25
434.993	-9.25
435.452	-1.75
435.912	-3.15
436.371	-4.55
436.83	-6.85
437.29	2.65
437.749	-4.95
438.209	-10.15
438.668	-5.05
439.127	-7.45
439.587	0.75
440.046	-4.85
440.505	-9.05
440.964	-2.35
441.424	-5.85
441.883	-0.35
442.342	5.25
442.801	-8.45
443.26	-0.35
443.719	2.15
444.178	-0.85
444.637	-15.55
445.096	-0.45
445.555	-2.45
446.014	-2.55
446.473	3.45
446.932	-2.15
447.391	-5.55
447.849	-1.95
448.308	-7.15
448.767	-13.25
449.226	-3.85
449.685	-8.15
450.143	0.85
450.602	-2.65
451.061	-5.55
451.519	-6.25
451.978	-7.95
452.436	-9.65
452.895	-7.35
453.353	-2.75
453.812	-5.25
454.27	2.25
454.729	0.95
455.187	-6.15
455.646	-5.95
456.104	-1.45
456.562	-2.55
457.021	-7.05
457.479	-2.85
457.937	-6.65
458.395	-3.25
458.854	-11.55
459.312	-5.45
459.77	-14.25
460.228	-7.65
460.686	-10.05
461.144	-0.45
461.602	-0.35
462.06	-5.85
462.518	2.55
462.976	-4.55
463.434	-6.35
463.892	-3.15
464.35	-11.45
464.808	1.95
465.266	-8.05
465.724	-0.95
466.181	-0.45
466.639	-5.15
467.097	4.05
467.555	4.15
468.012	-0.65
468.47	-1.05
468.928	-4.35
469.385	3.05
469.843	-2.55
470.3	2.25
470.758	0.45
471.215	-9.85
471.673	-3.65
472.13	-5.55
472.588	-2.95
473.045	-3.75
473.503	-0.35
473.96	-5.35
474.417	-1.55
474.875	-2.05
475.332	4.65
475.789	-2.05
476.246	-2.05
476.704	-1.05
477.161	-7.75
477.618	-11.25
478.075	-4.85
478.532	-4.55
478.989	-3.05
479.446	-3.85
479.903	8.45
480.36	-0.55
480.817	-5.75
481.274	-2.25
481.731	-0.15
482.188	-7.15
482.645	2.75
483.102	-4.25
483.558	-6.65
484.015	1.05
484.472	5.25
484.929	1.85
485.385	-1.05
485.842	3.55
486.299	-7.45
486.755	4.65
487.212	1.45
487.668	-7.55
488.125	-0.25
488.582	2.75
489.038	0.45
489.494	-7.95
489.951	-8.05
490.407	-7.55
490.864	-2.85
491.32	0.15
491.776	0.05
492.233	-0.55
492.689	-12.95
493.145	-6.55
493.602	-5.55
494.058	-1.25
494.514	-12.45
494.97	-1.25
495.426	-9.15
495.882	-4.65
496.338	-4.15
496.794	1.95
497.251	-7.15
497.707	0.35
498.163	-3.65
498.618	-1.75
499.074	-5.75
499.53	-1.15
499.986	-4.35
500.442	-2.65
500.898	-1.15
501.354	-7.15
501.809	-6.45
502.265	-3.55
502.721	-5.65
503.177	4.25
503.632	-0.65
504.088	-2.55
504.543	2.35
504.999	-3.15
505.455	-5.15
505.91	-9.05
506.366	3.25
506.821	-7.15
507.277	-1.85
507.732	-5.35
508.187	-7.15
508.643	-1.55
509.098	-5.95
509.553	0.85
510.009	0.75
510.464	-2.05
510.919	3.15
511.375	-4.15
511.83	-2.65
512.285	-4.75
512.74	-0.25
513.195	-0.95
513.65	-0.55
514.105	-1.55
514.56	-4.85
515.015	-6.15
515.47	-0.05
515.925	-0.35
516.38	1.15
516.835	7.55
517.29	-2.95
517.745	-3.25
518.2	-1.15
518.655	-4.05
519.109	-10.35
519.564	4.75
520.019	-8.45
520.474	-8.95
520.928	-6.65
521.383	-3.95
521.838	-8.95
522.292	-5.35
522.747	-0.45
523.201	4.25
523.656	2.15
524.11	-5.45
524.565	-4.75
525.019	-11.55
525.474	-2.75
525.928	-0.55
526.382	-11.05
526.837	-0.05
527.291	-5.25
527.745	-4.15
528.2	-1.55
528.654	-2.85
529.108	-11.85
529.562	-9.85
530.016	-4.45
530.47	-4.85
530.925	-3.15
531.379	-3.65
531.833	-3.75
532.287	-7.25
532.741	-1.35
533.195	-12.45
533.649	-3.65
534.103	1.95
534.556	-12.55
535.01	-2.65
535.464	-6.55
535.918	2.05
536.372	-6.95
536.826	0.95
537.279	-2.45
537.733	-1.95
538.187	-4.75
538.64	-4.85
539.094	-2.95
539.548	-3.35
540.001	-4.35
540.455	-5.35
540.908	2.45
541.362	-1.25
541.815	-1.75
542.269	-3.95
542.722	-13.25
543.175	-2.15
543.629	-7.85
544.082	0.55
544.536	-7.85
544.989	-7.85
545.442	-2.55
545.895	-3.15
546.349	-7.25
546.802	-9.55
547.255	-7.45
547.708	-7.95
548.161	-7.05
548.614	-7.65
549.067	-2.45
549.52	-6.95
549.973	-2.55
550.426	-3.85
550.879	-8.75
551.332	-5.65
551.785	2.85
552.238	-6.55
552.691	2.55
553.144	-1.85
553.596	-6.85
554.049	-9.05
554.502	-7.05
554.955	-5.25
555.407	-10.35
555.86	-1.55
556.313	2.65
556.765	-8.15
557.218	1.45
557.67	-5.85
558.123	-6.05
558.576	-7.85
559.028	-3.35
559.48	-3.25
559.933	-1.35
560.385	-5.45
560.838	-4.25
561.29	-7.95
561.742	-0.75
562.195	-3.95
562.647	-8.85
563.099	4.65
563.551	-4.85
564.004	8.85
564.456	-3.75
564.908	-2.65
565.36	-1.65
565.812	-2.45
566.264	-6.55
566.716	-1.85
567.168	-5.55
567.62	-3.45
568.072	-7.65
568.524	-10.45
568.976	-4.75
569.428	-7.25
569.88	-4.25
570.332	-6.35
570.784	-8.85
571.235	-7.65
571.687	-10.85
572.139	-2.75
572.59	-7.75
573.042	-6.35
573.494	-4.25
573.945	-2.25
574.397	-5.45
574.849	-9.05
575.3	1.85
575.752	-3.25
576.203	-3.65
576.655	2.25
577.106	-5.85
577.557	-1.95
578.009	3.65
578.46	-2.55
578.912	-3.75
579.363	-3.95
579.814	-0.35
580.265	-3.05
580.717	-10.45
581.168	-8.25
581.619	2.05
582.07	-2.65
582.521	-3.35
582.972	-8.75
583.423	-2.15
583.875	-11.05
584.326	-9.05
584.777	-6.05
585.227	-3.15
585.678	-6.45
586.129	-9.45
586.58	-2.55
587.031	-4.45
587.482	-0.95
587.933	-0.35
588.384	-4.35
588.834	-4.05
589.285	0.85
589.736	-7.55
590.186	-7.15
590.637	-4.25
591.088	-5.15
591.538	-1.65
591.989	2.25
592.439	5.55
592.89	-2.85
593.34	-1.15
593.791	-5.25
594.241	-2.75
594.692	-0.35
595.142	-4.05
595.593	-6.85
596.043	-0.25
596.493	-2.75
596.943	-2.95
597.394	2.15
597.844	-15.25
598.294	-11.15
598.744	1.35
599.195	4.15
599.645	0.65
600.095	-9.85
600.545	-5.75
600.995	-5.65
601.445	0.85
601.895	-6.15
602.345	3.15
602.795	-5.45
603.245	-5.65
603.695	-2.75
604.145	-2.85
604.594	-1.35
605.044	-6.45
605.494	-2.25
605.944	-14.05
606.393	-5.45
606.843	-2.55
607.293	-1.55
607.743	-1.35
608.192	-9.25
608.642	3.35
609.091	-0.35
609.541	3.15
609.99	-5.85
610.44	-1.45
610.889	-7.35
611.339	-5.05
611.788	-10.15
612.238	-12.05
612.687	6.35
613.136	-2.35
613.586	-1.35
614.035	-12.85
614.484	-7.45
614.933	-9.35
615.383	-0.55
615.832	-3.95
616.281	8.05
616.73	-0.55
617.179	-3.85
617.628	-1.55
618.077	-3.05
618.526	-1.35
618.975	-11.65
619.424	0.95
619.873	-4.45
620.322	-3.15
620.771	-11.05
621.22	-4.75
621.669	-0.85
622.118	-2.05
622.567	-5.05
623.015	-10.45
623.464	-0.65
623.913	-7.45
624.361	-10.95
624.81	-11.25
625.259	-6.35
625.707	10.45
626.156	-7.55
626.604	4.05
627.053	-1.75
627.501	-3.05
627.95	-9.55
628.398	-6.25
628.847	-8.25
629.295	-8.15
629.744	-3.45
630.192	1.35
630.64	3.85
631.089	-3.65
631.537	-3.45
631.985	-9.25
632.433	2.15
632.881	-8.55
633.33	-3.55
633.778	-5.15
634.226	-9.65
634.674	-6.05
635.122	-3.65
635.57	-1.95
636.018	-4.85
636.466	4.05
636.914	-6.05
637.362	-1.45
637.81	6.55
638.258	-2.35
638.705	-5.05
639.153	-0.65
639.601	-12.95
640.049	-12.75
640.497	-4.85
640.944	3.95
641.392	-9.45
641.84	-4.55
642.287	-3.85
642.735	-12.15
643.182	1.25
643.63	-9.85
644.078	-4.65
644.525	-3.75
644.973	-3.75
645.42	-3.25
645.867	-5.65
646.315	5.25
646.762	-13.25
647.21	-7.55
647.657	-10.95
648.104	-1.05
648.551	-3.25
648.999	-7.45
649.446	-0.25
649.893	-3.85
650.34	-4.95
650.787	-8.15
651.234	-0.65
651.682	-1.45
652.129	-1.35
652.576	-4.85
653.023	5.35
653.47	6.35
653.917	-0.45
654.363	-2.95
654.81	-9.15
655.257	-9.05
655.704	3.15
656.151	0.05
656.598	2.05
657.044	-3.95
657.491	-1.15
657.938	-7.65
658.385	0.75
658.831	-1.85
659.278	7.25
659.724	-10.55
660.171	-4.15
660.618	-4.95
661.064	5.35
661.511	-3.85
661.957	-3.25
662.404	-2.75
662.85	10.65
663.296	-1.45
663.743	-1.45
664.189	-3.85
664.635	0.15
665.082	-4.95
665.528	-2.35
665.974	-3.45
666.42	0.75
666.867	-4.65
667.313	-7.45
667.759	0.85
668.205	1.45
668.651	-0.35
669.097	-4.55
669.543	-6.55
669.989	-2.35
670.435	3.45
670.881	-2.75
671.327	-0.75
671.773	1.35
672.219	-2.35
672.665	3.25
673.11	-14.55
673.556	-6.75
674.002	4.25
674.448	-2.85
674.893	-0.75
675.339	-4.65
675.785	-4.75
676.23	-0.45
676.676	-11.75
677.122	-7.45
677.567	-0.55
678.013	-2.05
678.458	-4.85
678.904	-5.15
679.349	-10.05
679.794	-0.05
680.24	-3.35
680.685	-5.75
681.131	-1.75
681.576	-4.95
682.021	-8.55
682.466	-8.45
682.912	-13.55
683.357	-9.95
683.802	3.65
684.247	-2.15
684.692	-0.85
685.137	-12.65
685.583	-2.55
686.028	-8.45
686.473	-2.55
686.918	-12.25
687.363	5.85
687.807	3.85
688.252	-3.25
688.697	-0.45
689.142	-0.15
689.587	-7.35
690.032	-14.65
690.477	-4.15
690.921	-11.95
691.366	-6.05
691.811	-6.75
692.255	1.15
692.7	4.05
693.145	-7.15
693.589	-0.75
694.034	-6.35
694.478	-3.35
694.923	1.75
695.367	-1.65
695.812	0.35
696.256	-3.65
696.701	-4.15
697.145	-6.15
697.59	5.55
698.034	-7.25
698.478	3.25
698.922	-8.45
699.367	-5.25
699.811	-7.25
700.255	-1.15
700.699	-4.25
701.143	-10.75
701.588	-11.85
702.032	-0.35
702.476	-7.85
702.92	-6.35
703.364	-3.75
703.808	-6.05
704.252	-4.85
704.696	-4.25
705.14	-0.85
705.584	-4.05
706.027	-3.75
706.471	-6.35
706.915	-9.05
707.359	-7.85
707.803	-13.15
708.246	-2.65
708.69	1.55
709.134	1.55
709.577	-6.95
710.021	5.05
710.465	-3.15
710.908	1.85
711.352	-9.75
711.795	-9.75
712.239	-0.65
712.682	-12.25
713.126	-5.15
713.569	2.35
714.012	2.95
714.456	-0.15
714.899	-3.55
715.342	-6.15
715.786	-10.15
716.229	-0.55
716.672	3.65
717.115	-4.45
717.558	-3.95
718.002	-6.35
718.445	-4.15
718.888	-0.95
719.331	-5.35
719.774	-1.45
720.217	0.35
720.66	-4.85
721.103	-4.35
721.546	-1.05
721.989	-1.85
722.432	-12.75
722.874	-6.65
723.317	-13.45
723.76	-4.05
724.203	-8.35
724.645	-3.75
725.088	7.85
725.531	-8.35
725.974	-10.25
726.416	-9.15
726.859	-6.15
727.301	-5.45
727.744	-2.25
728.187	-1.15
728.629	-0.25
729.071	-4.05
729.514	-4.05
729.956	-7.25
730.399	-6.35
730.841	3.95
731.283	-0.85
731.726	-5.45
732.168	-0.65
732.61	-6.05
733.053	-6.75
733.495	-6.85
733.937	-3.35
734.379	-2.05
734.821	-12.55
735.263	-1.15
735.705	-5.05
736.148	-6.55
736.59	-2.45
737.032	-12.25
737.474	-8.45
737.916	-7.55
738.357	-3.65
738.799	-3.15
739.241	1.95
739.683	-4.05
740.125	-0.65
740.567	-7.95
741.008	0.05
741.45	-1.65
741.892	3.25
742.334	1.25
742.775	-8.35
743.217	0.65
743.658	-3.65
744.1	-4.75
744.542	-8.85
744.983	-5.15
745.425	-6.85
745.866	0.25
746.307	4.45
746.749	-7.85
747.19	-0.15
747.632	-2.65
748.073	-15.35
748.514	-6.15
748.956	-8.85
749.397	-3.85
749.838	-0.35
750.279	-6.25
750.72	-1.95
751.162	0.15
751.603	-1.05
752.044	-8.35
752.485	-14.15
752.926	-4.85
753.367	-2.75
753.808	-1.05
754.249	-5.65
754.69	-8.85
755.131	-8.25
755.572	-11.65
756.013	-12.65
756.453	-4.85
756.894	-6.05
757.335	-6.85
757.776	-3.25
758.216	0.55
758.657	-6.95
759.098	-10.55
759.538	-9.55
759.979	-7.75
760.42	-4.65
760.86	-3.45
761.301	-5.25
761.741	-2.55
762.182	-3.75
762.622	-0.05
763.063	-9.05
763.503	0.55
763.943	-8.65
764.384	0.55
764.824	-5.45
765.264	-8.55
765.705	-4.45
766.145	-6.75
766.585	-2.05
767.025	-7.75
767.465	-14.75
767.906	-5.85
768.346	4.45
768.786	-3.05
769.226	-7.35
769.666	2.15
770.106	-10.55
770.546	-4.45
770.986	-12.65
771.426	-6.55
771.866	-1.65
772.306	-7.05
772.745	-13.25
773.185	-6.85
773.625	4.55
774.065	-8.25
774.505	3.25
774.944	-4.45
775.384	-0.55
775.824	-5.35
776.263	-5.65
776.703	-6.85
777.142	-11.65
777.582	-10.65
778.021	-7.85
778.461	-3.35
778.9	-0.45
779.34	4.35
779.779	-6.95
780.219	-15.95
780.658	-4.85
781.097	-7.15
781.537	0.05
781.976	-6.55
782.415	-7.35
782.855	-6.45
783.294	-6.45
783.733	-3.15
784.172	-6.05
784.611	-9.75
785.05	-2.35
785.489	-4.45
785.928	-2.85
786.367	-2.15
786.806	-6.85
787.245	-0.35
787.684	-15.15
788.123	4.15
788.562	-3.05
789.001	1.25
789.44	-3.85
789.879	-2.15
790.317	-5.65
790.756	1.25
791.195	-5.95
791.634	-11.65
792.072	-2.35
792.511	-0.95
792.95	-6.95
793.388	-0.55
793.827	0.85
794.265	-7.75
794.704	-6.15
795.142	2.15
795.581	8.45
796.019	-1.15
796.458	-1.45
796.896	-8.55
797.334	-4.15
797.773	-3.45
798.211	2.35
798.649	0.55
799.087	-9.25
799.526	-8.75
799.964	-2.65
800.402	0.05
800.84	-5.55
801.278	-8.75
801.716	-7.65
802.154	-1.05
802.592	-1.85
803.03	-1.05
803.468	-10.65
803.906	-4.35
804.344	1.15
804.782	-7.05
805.22	-12.45
805.658	-9.35
806.096	-1.55
806.533	0.05
806.971	-3.25
807.409	1.15
807.847	-3.75
808.284	-4.05
808.722	-0.45
809.16	1.75
809.597	-1.05
810.035	-1.85
810.472	-1.85
810.91	-5.65
811.347	2.85
811.785	0.05
812.222	-4.25
812.66	-4.55
813.097	-1.95
813.535	-4.95
813.972	-6.05
814.409	-4.05
814.846	-10.95
815.284	-1.15
815.721	-7.15
816.158	-3.65
816.595	-3.15
817.032	-2.15
817.47	1.45
817.907	5.55
818.344	-3.35
818.781	-6.05
819.218	-7.15
819.655	-1.25
820.092	-2.95
820.529	-13.35
820.966	-6.25
821.403	-1.55
821.839	-6.35
822.276	-5.35
822.713	1.55
823.15	1.95
823.587	-2.35
824.023	-3.55
824.46	-7.15
824.897	-7.55
825.333	-3.75
825.77	1.95
826.206	-6.85
826.643	-1.35
827.08	-0.55
827.516	-2.55
827.953	-2.25
828.389	1.35
828.825	-4.55
829.262	1.85
829.698	-7.45
830.135	-4.15
830.571	-3.85
831.007	-1.95
831.443	-5.25
831.88	-1.85
832.316	-5.05
832.752	-6.75
833.188	-0.85
833.624	-11.75
834.06	-0.85
834.497	-3.25
834.933	-3.85
835.369	-5.75
835.805	-12.85
836.241	-2.75
836.677	-8.95
837.112	-5.75
837.548	-14.15
837.984	-7.45
838.42	-8.85
838.856	-8.75
839.292	-6.15
839.727	-14.35
840.163	-2.15
840.599	-1.75
841.034	1.25
841.47	3.25
841.906	-5.25
842.341	-4.35
842.777	-4.35
843.212	-3.75
843.648	0.55
844.083	-2.85
844.519	-11.25
844.954	-3.85
845.39	-9.75
845.825	-2.75
846.261	-8.15
846.696	-7.95
847.131	-6.85
847.566	-1.45
848.002	-4.05
848.437	-3.15
848.872	-2.85
849.307	-9.35
849.742	-0.05
850.177	-1.35
850.613	-1.25
851.048	-9.25
851.483	-2.15
851.918	-5.25
852.353	-9.65
852.788	-12.55
853.223	-2.65
853.657	2.65
854.092	-2.45
854.527	-4.15
854.962	-1.45
855.397	-6.25
855.832	4.25
856.266	-0.65
856.701	1.45
857.136	-11.65
857.57	-2.85
858.005	-7.05
858.44	2.15
858.874	-4.65
859.309	1.65
859.743	-11.35
860.178	-3.65
860.612	-10.65
861.047	-3.05
861.481	-0.65
861.915	-8.65
862.35	-4.65
862.784	-8.75
863.218	1.55
863.653	-5.45
864.087	0.85
864.521	2.45
864.955	-6.85
865.39	-1.95
865.824	-5.75
866.258	-9.95
866.692	-5.05
867.126	-2.65
867.56	-0.55
867.994	-4.15
868.428	-13.55
868.862	1.35
869.296	-5.05
869.73	-1.05
870.164	-8.05
870.598	-4.75
871.031	-7.55
871.465	-5.45
871.899	-5.35
872.333	-6.75
872.766	-4.55
873.2	-6.35
873.634	-5.95
874.067	-5.75
874.501	-3.65
874.935	0.45
875.368	-5.25
875.802	-7.15
876.235	-0.05
876.669	-2.05
877.102	-7.45
877.535	-0.25
877.969	-7.55
878.402	-3.45
878.836	-8.55
879.269	-9.35
879.702	-1.85
880.135	-10.75
880.569	-2.55
881.002	-3.55
881.435	0.35
881.868	-6.45
882.301	-2.95
882.734	-10.55
883.167	-4.45
883.601	-8.35
884.034	-0.75
884.467	-5.85
884.899	-1.15
885.332	-8.55
885.765	-5.15
886.198	-10.65
886.631	-4.15
887.064	-6.05
887.497	-2.55
887.929	2.15
888.362	-6.15
888.795	-2.95
889.228	-0.35
889.66	0.75
890.093	-4.95
890.526	2.35
890.958	-1.05
891.391	-8.95
891.823	-6.45
892.256	-1.55
892.688	-4.15
893.121	-3.15
893.553	1.75
893.985	1.45
894.418	1.35
894.85	-12.15
895.282	-3.85
895.715	-3.05
896.147	-3.95
896.579	-4.75
897.011	-8.05
897.444	0.25
897.876	-10.05
898.308	-6.25
898.74	-6.05
899.172	-9.45
899.604	5.15
900.036	1.75
900.468	-4.15
900.9	-5.55
901.332	-2.85
901.764	-4.75
902.196	-3.55
902.628	-6.45
903.06	-4.45
903.491	-4.45
903.923	-6.45
904.355	-4.25
904.787	0.45
905.218	-2.15
905.65	-7.65
906.082	-3.15
906.513	-4.95
906.945	-8.85
907.376	-6.55
907.808	-3.45
908.239	-6.35
908.671	-9.35
909.102	-5.45
909.534	-6.65
909.965	0.05
910.397	4.95
910.828	0.85
911.259	2.65
911.691	-6.45
912.122	-6.45
912.553	-9.45
912.984	0.05
913.415	1.15
913.847	1.95
914.278	-6.25
914.709	-10.15
915.14	-8.25
915.571	1.05
916.002	2.55
916.433	-1.35
916.864	-1.95
917.295	-4.15
917.726	-1.75
918.157	-6.75
918.587	-1.05
919.018	-2.05
919.449	-0.75
919.88	-5.25
920.311	-0.85
920.741	-4.25
921.172	-8.25
921.603	-12.75
922.033	-8.05
922.464	-1.25
922.895	-7.15
923.325	3.55
923.756	-4.45
924.186	-2.55
924.617	-3.35
925.047	-9.95
925.478	-16.65
925.908	-9.75
926.338	-12.55
926.769	-6.45
927.199	7.15
927.629	-8.65
928.06	-3.25
928.49	-5.75
928.92	2.45
929.35	-2.15
929.78	-0.75
930.21	-1.45
930.641	2.35
931.071	-0.45
931.501	-6.95
931.931	0.45
932.361	-6.25
932.791	-2.35
933.221	0.85
933.651	-5.35
934.08	-9.15
934.51	3.55
934.94	-5.25
935.37	0.25
935.8	-0.75
936.229	-3.55
936.659	-2.15
937.089	-9.25
937.519	-4.85
937.948	4.25
938.378	-2.95
938.807	-3.25
939.237	-2.35
939.666	-1.75
940.096	-9.35
940.525	-1.75
940.955	-0.15
941.384	-0.25
941.814	-11.15
942.243	-9.25
942.672	-2.15
943.102	-5.05
943.531	-3.65
943.96	-2.85
944.39	1.55
944.819	-5.25
945.248	2.55
945.677	-0.95
946.106	3.05
946.535	-2.15
946.964	-7.85
947.393	-1.75
947.822	-5.65
948.251	-6.35
948.68	-0.95
949.109	3.25
949.538	4.65
949.967	-3.25
950.396	-3.15
950.825	-7.55
951.254	-5.75
951.682	-10.55
952.111	0.15
952.54	4.85
952.969	-8.65
953.397	-6.35
953.826	1.25
954.254	-11.35
954.683	-4.85
955.112	-10.55
955.54	0.65
955.969	-3.85
956.397	-0.65
956.826	-4.35
957.254	1.35
957.682	0.75
958.111	-0.45
958.539	-5.85
958.967	-5.55
959.396	-6.25
959.824	-0.35
960.252	-1.85
960.68	-8.75
961.109	-2.45
961.537	-4.95
961.965	3.05
962.393	-2.95
962.821	-9.95
963.249	-6.05
963.677	1.35
964.105	-7.35
964.533	-11.95
964.961	-3.75
965.389	-5.45
965.817	-8.25
966.245	-2.25
966.672	-3.75
967.1	-10.65
967.528	-0.25
967.956	-5.45
968.383	-2.15
968.811	-3.15
969.239	-0.65
969.666	-8.95
970.094	1.95
970.522	-0.25
970.949	-7.05
971.377	-3.15
971.804	-10.65
972.232	-2.55
972.659	-3.15
973.087	-6.45
973.514	-5.55
973.941	-7.85
974.369	0.75
974.796	-2.25
975.223	-1.65
975.651	-7.95
976.078	-4.15
976.505	-4.15
976.932	-5.75
977.359	-7.75
977.786	4.35
978.214	-6.45
978.641	-9.75
979.068	-6.85
979.495	-4.15
979.922	-5.65
980.349	-4.35
980.776	1.95
981.202	-4.15
981.629	3.65
982.056	1.15
982.483	-4.75
982.91	4.15
983.337	-13.05
983.763	2.75
984.19	-5.95
984.617	-6.45
985.043	-4.95
985.47	-6.35
985.897	-10.75
986.323	-9.45
986.75	-1.55
987.176	-5.25
987.603	-5.05
988.029	-6.25
988.456	-3.35
988.882	0.85
989.308	-3.65
989.735	0.35
990.161	-9.65
990.587	-5.15
991.014	-2.55
991.44	9.25
991.866	0.05
992.292	-4.85
992.719	-7.65
993.145	0.45
993.571	-5.35
993.997	-2.25
994.423	2.45
994.849	-3.55
995.275	0.85
995.701	-2.55
996.127	0.75
996.553	1.55
996.979	0.15
997.405	-4.75
997.83	-8.35
998.256	-8.75
998.682	-6.65
999.108	-3.25
999.534	-1.45
999.959	-7.65
1000.385	-4.65
1000.811	-2.25
1001.236	-7.55
1001.662	-6.15
1002.087	-10.75
1002.513	0.95
1002.938	6.25
1003.364	-6.25
1003.789	-5.55
1004.215	-3.75
1004.64	-3.65
1005.066	-2.15
1005.491	-2.75
1005.916	-3.05
1006.342	-10.85
1006.767	-7.65
1007.192	4.35
1007.617	-7.95
1008.042	-11.35
1008.468	-5.45
1008.893	-4.65
1009.318	-0.65
1009.743	-9.95
1010.168	-4.45
1010.593	-1.75
1011.018	-7.45
1011.443	1.35
1011.868	0.15
1012.293	-6.45
1012.718	-9.45
1013.143	-1.15
1013.567	0.45
1013.992	-7.45
1014.417	-14.75
1014.842	-4.15
1015.267	-4.55
1015.691	-3.55
1016.116	4.65
1016.541	-0.75
1016.965	-1.65
1017.39	-0.75
1017.814	3.15
1018.239	-1.65
1018.663	-5.85
1019.088	-1.65
1019.512	2.95
1019.937	2.35
1020.361	-2.55
1020.785	-11.85
1021.21	-5.35
1021.634	-3.15
1022.058	-3.35
1022.483	4.65
1022.907	-3.25
1023.331	-3.25
1023.755	-7.15
1024.179	-7.75
1024.604	-13.05
1025.028	-12.35
1025.452	1.55
1025.876	-3.65
1026.3	-2.25
1026.724	-7.35
1027.148	-6.45
1027.572	-11.55
1027.996	-4.75
1028.42	2.65
1028.843	-0.65
1029.267	-5.85
1029.691	-0.05
1030.115	-8.75
1030.539	-6.95
1030.962	-8.05
1031.386	-9.25
1031.81	0.05
1032.233	-1.75
1032.657	-5.75
1033.08	-0.65
1033.504	-3.35
1033.927	-4.85
1034.351	5.55
1034.774	-1.55
1035.198	-0.75
1035.621	-1.65
1036.045	-4.15
1036.468	2.85
1036.891	-8.55
1037.315	-7.05
1037.738	-8.65
1038.161	2.95
1038.584	-0.95
1039.008	-5.55
1039.431	-6.25
1039.854	-6.25
1040.277	-7.75
1040.7	-11.05
1041.123	1.65
1041.546	-5.85
1041.969	1.35
1042.392	-3.55
1042.815	-2.25
1043.238	-2.05
1043.661	3.35
1044.084	-7.05
1044.507	-5.55
1044.93	-6.75
1045.352	-7.35
1045.775	-6.55
1046.198	-3.35
1046.621	-0.85
1047.043	-3.85
1047.466	5.85
1047.889	-5.75
1048.311	-7.65
1048.734	-3.25
1049.156	-6.45
1049.579	0.35
1050.001	-9.25
1050.424	-1.75
1050.846	-4.35
1051.269	1.25
1051.691	-1.95
1052.113	-6.45
1052.536	-3.15
1052.958	4.45
1053.38	-8.25
1053.802	-10.25
1054.225	2.05
1054.647	-11.65
1055.069	-5.35
1055.491	1.45
1055.913	-8.75
1056.335	0.15
1056.757	-1.45
1057.179	-7.55
1057.601	-1.55
1058.023	-3.95
1058.445	-5.75
1058.867	-2.05
1059.289	-5.15
1059.711	-3.25
1060.133	-1.85
1060.555	-6.05
1060.976	-5.25
1061.398	2.35
1061.82	-7.85
1062.241	-5.25
1062.663	-5.65
1063.085	-2.15
1063.506	-3.05
1063.928	-10.65
1064.35	-1.35
1064.771	-11.85
1065.193	-6.85
1065.614	-10.95
1066.035	-2.05
1066.457	-2.35
1066.878	-3.25
1067.3	-4.95
1067.721	-3.55
1068.142	-7.95
1068.564	-6.55
1068.985	-5.05
1069.406	-7.45
1069.827	-5.15
1070.248	-2.15
1070.67	-3.45
1071.091	-2.75
1071.512	-0.95
1071.933	-2.95
1072.354	-9.05
1072.775	-6.15
1073.196	-11.95
1073.617	2.55
1074.038	-11.05
1074.459	-5.95
1074.88	-10.95
1075.3	-0.85
1075.721	5.35
1076.142	3.55
1076.563	0.45
1076.983	-7.15
1077.404	-8.95
1077.825	-5.35
1078.246	0.25
1078.666	-10.15
1079.087	-2.55
1079.507	-3.25
1079.928	-0.65
1080.348	2.75
1080.769	-3.35
1081.189	-0.85
1081.61	-1.75
1082.03	0.05
1082.451	-6.45
1082.871	-3.25
1083.291	-4.85
1083.711	-8.55
1084.132	-9.85
1084.552	-4.15
1084.972	5.45
1085.392	-6.75
1085.813	-10.25
1086.233	-7.55
1086.653	-7.35
1087.073	2.45
1087.493	-7.45
1087.913	-6.85
1088.333	-7.25
1088.753	-7.15
1089.173	2.35
1089.593	0.15
1090.013	3.15
1090.433	3.75
1090.852	-3.45
1091.272	-0.65
1091.692	1.55
1092.112	-4.65
1092.531	-6.65
1092.951	-15.45
1093.371	0.95
1093.79	2.85
1094.21	-6.15
1094.63	-4.25
1095.049	-3.75
1095.469	-1.05
1095.888	-6.05
1096.308	4.05
1096.727	3.45
1097.146	-9.65
1097.566	2.15
1097.985	-6.05
1098.405	-1.35
1098.824	-12.55
1099.243	-6.25
1099.662	-9.25
1100.082	-7.25
1100.501	8.65
1100.92	-1.05
1101.339	-5.75
1101.758	-6.25
