Data from 20171114-ORNL-Ar_H_NY_Subt18_08-03-12-108.txt Node
Date: Tue Nov 14 08:03:12 EST 2017
User: Ender
Spectrometer: HR+D1039
Trigger mode: 0
Integration Time (sec): 2.730000E-2
Scans to average: 10
Electric dark correction enabled: true
Nonlinearity correction enabled: false
Boxcar width: 0
XAxis mode: Wavelengths
Number of Pixels in Spectrum: 2048
>>>>>Begin Spectral Data<<<<<
187.836	-5.28
188.309	-5.28
188.782	-5.28
189.255	4.32
189.728	-2.78
190.201	4.12
190.674	1.62
191.147	2.82
191.619	-6.08
192.092	0.12
192.565	5.12
193.038	-0.28
193.511	-2.28
193.984	5.62
194.456	-2.48
194.929	1.62
195.402	-5.68
195.874	-0.58
196.347	1.22
196.82	-3.58
197.292	7.22
197.765	1.02
198.237	-3.48
198.71	-0.98
199.182	-0.28
199.655	0.92
200.127	0.02
200.6	-1.08
201.072	-4.98
201.544	-2.88
202.017	2.12
202.489	3.72
202.961	1.52
203.433	-1.38
203.906	2.62
204.378	-1.68
204.85	-5.18
205.322	-11.68
205.794	-5.28
206.266	-5.18
206.739	-8.38
207.211	-0.98
207.683	-4.18
208.155	-4.08
208.627	-3.78
209.099	-9.48
209.57	-7.78
210.042	-5.78
210.514	-7.48
210.986	0.02
211.458	-8.18
211.93	-0.18
212.402	5.82
212.873	-4.38
213.345	-11.38
213.817	-13.38
214.288	-5.38
214.76	-11.68
215.232	-3.88
215.703	-2.28
216.175	-7.98
216.646	-10.88
217.118	-8.68
217.589	-5.08
218.061	-3.08
218.532	-4.18
219.004	-0.78
219.475	-5.38
219.946	0.62
220.418	-4.98
220.889	0.52
221.36	3.02
221.832	-2.68
222.303	-8.38
222.774	-0.78
223.245	-7.48
223.717	-5.78
224.188	-2.08
224.659	-7.18
225.13	-7.08
225.601	-3.88
226.072	-0.98
226.543	4.42
227.014	0.12
227.485	0.02
227.956	-5.28
228.427	-2.58
228.898	1.22
229.369	-0.28
229.839	-6.18
230.31	-2.28
230.781	5.32
231.252	-4.08
231.722	-7.88
232.193	-7.38
232.664	-2.88
233.135	-2.28
233.605	-1.88
234.076	-11.88
234.546	1.42
235.017	1.72
235.487	0.92
235.958	-3.28
236.428	-9.58
236.899	-0.78
237.369	0.92
237.84	-3.58
238.31	-3.78
238.78	-2.08
239.251	-9.18
239.721	-7.08
240.191	-6.58
240.662	-9.18
241.132	-6.98
241.602	-6.28
242.072	-5.48
242.542	3.52
243.013	-4.38
243.483	-1.98
243.953	1.12
244.423	-1.08
244.893	-3.88
245.363	-2.98
245.833	-6.28
246.303	-1.08
246.773	-1.88
247.243	-6.48
247.712	-6.38
248.182	0.12
248.652	-3.48
249.122	-11.08
249.592	-5.38
250.061	-2.18
250.531	8.32
251.001	-4.08
251.471	-1.38
251.94	4.32
252.41	-4.88
252.879	-4.38
253.349	5.22
253.818	3.02
254.288	-2.88
254.757	-3.48
255.227	-7.38
255.696	-2.88
256.166	0.42
256.635	1.42
257.105	-1.08
257.574	-5.78
258.043	-4.68
258.513	-6.28
258.982	-5.18
259.451	-12.78
259.92	6.02
260.389	0.62
260.859	3.22
261.328	-1.98
261.797	-4.88
262.266	-10.18
262.735	5.22
263.204	0.82
263.673	-9.48
264.142	-1.38
264.611	-12.68
265.08	-11.08
265.549	-11.08
266.018	-2.98
266.487	-10.28
266.955	-10.78
267.424	-7.48
267.893	-3.28
268.362	-8.78
268.83	-5.08
269.299	1.52
269.768	-8.88
270.236	-3.48
270.705	-10.68
271.174	-5.98
271.642	-3.28
272.111	-1.08
272.579	-2.38
273.048	-8.28
273.516	-4.38
273.985	-3.88
274.453	-2.18
274.922	-0.88
275.39	-3.98
275.858	-6.68
276.327	-0.68
276.795	1.22
277.263	-5.08
277.731	0.02
278.2	-9.28
278.668	-3.28
279.136	-2.48
279.604	0.02
280.072	-2.28
280.54	-0.28
281.008	-1.58
281.477	-0.18
281.945	-1.58
282.413	1.72
282.881	0.82
283.348	-1.28
283.816	-1.68
284.284	-5.08
284.752	1.82
285.22	-3.38
285.688	-3.08
286.156	-2.88
286.623	-0.58
287.091	-6.28
287.559	1.32
288.026	-0.98
288.494	-1.68
288.962	-10.28
289.429	-5.78
289.897	0.52
290.364	-1.18
290.832	1.72
291.3	-3.58
291.767	-8.18
292.234	-3.28
292.702	-3.98
293.169	-3.88
293.637	-2.78
294.104	-3.28
294.571	-7.08
295.039	-9.18
295.506	-11.78
295.973	-4.18
296.44	-5.88
296.908	-7.38
297.375	0.02
297.842	0.12
298.309	-10.08
298.776	-7.58
299.243	-8.88
299.71	-9.88
300.177	-3.08
300.644	-5.58
301.111	2.02
301.578	-3.98
302.045	-9.58
302.512	1.52
302.979	4.02
303.446	-0.68
303.913	-4.18
304.379	-5.68
304.846	0.92
305.313	-0.08
305.78	-1.58
306.246	-0.98
306.713	-2.28
307.18	-5.28
307.646	-9.08
308.113	-6.08
308.579	-8.58
309.046	-1.18
309.512	-9.38
309.979	-5.48
310.445	-4.98
310.912	-3.38
311.378	3.32
311.845	0.42
312.311	2.32
312.777	0.52
313.244	-4.48
313.71	5.82
314.176	-1.48
314.642	-8.38
315.109	-4.58
315.575	-6.28
316.041	5.92
316.507	-5.48
316.973	2.22
317.439	-2.78
317.905	0.32
318.371	-0.18
318.837	-1.28
319.303	-1.88
319.769	-5.28
320.235	-4.18
320.701	-4.38
321.167	-0.98
321.633	-8.68
322.099	-5.38
322.564	-2.18
323.03	-6.88
323.496	-9.08
323.962	-5.38
324.427	-2.98
324.893	3.92
325.359	-5.18
325.824	-4.38
326.29	-5.58
326.755	-3.88
327.221	-4.48
327.686	-3.78
328.152	1.82
328.617	0.02
329.083	3.52
329.548	0.42
330.014	-2.38
330.479	-5.98
330.944	-1.98
331.41	-6.08
331.875	-2.38
332.34	-4.88
332.805	-6.38
333.271	7.02
333.736	-3.58
334.201	0.62
334.666	1.12
335.131	1.42
335.596	-4.68
336.061	-0.58
336.526	-11.38
336.991	-8.38
337.456	6.12
337.921	-0.08
338.386	-4.18
338.851	-5.28
339.316	-4.68
339.781	-1.78
340.246	4.72
340.711	-7.08
341.175	-1.48
341.64	-5.78
342.105	-2.58
342.569	-6.38
343.034	2.12
343.499	-5.78
343.963	-10.08
344.428	1.22
344.893	4.42
345.357	-3.48
345.822	-4.38
346.286	4.22
346.751	-1.38
347.215	-2.18
347.679	-8.78
348.144	-3.88
348.608	-4.28
349.073	-6.68
349.537	-1.88
350.001	-0.28
350.465	3.82
350.93	0.42
351.394	0.72
351.858	-9.08
352.322	6.12
352.786	-3.98
353.25	-5.38
353.715	1.62
354.179	3.52
354.643	3.82
355.107	-1.68
355.571	-1.08
356.035	-1.88
356.498	-3.48
356.962	-10.58
357.426	1.42
357.89	-2.08
358.354	-3.68
358.818	-1.18
359.281	-2.28
359.745	-4.88
360.209	-2.48
360.673	-4.58
361.136	0.22
361.6	3.92
362.064	0.02
362.527	-3.48
362.991	5.92
363.454	-3.58
363.918	-12.28
364.381	-11.78
364.845	-5.38
365.308	3.12
365.772	-1.18
366.235	-2.58
366.698	-7.88
367.162	-0.98
367.625	-5.58
368.088	-3.38
368.552	0.52
369.015	0.42
369.478	1.32
369.941	5.52
370.404	-6.88
370.867	-4.08
371.331	0.82
371.794	-3.38
372.257	-4.18
372.72	-0.48
373.183	0.42
373.646	-7.48
374.109	-10.08
374.572	-6.18
375.035	-3.88
375.497	-6.58
375.96	-2.58
376.423	-6.48
376.886	-4.78
377.349	-5.58
377.811	-3.98
378.274	-0.08
378.737	-10.18
379.199	-7.08
379.662	-4.78
380.125	-6.08
380.587	-8.98
381.05	-6.88
381.512	-8.38
381.975	0.42
382.437	-1.58
382.9	-4.78
383.362	3.12
383.825	-5.98
384.287	-5.28
384.75	-3.68
385.212	0.52
385.674	3.12
386.136	-1.08
386.599	-2.58
387.061	-3.18
387.523	-3.68
387.985	-0.08
388.447	3.52
388.91	-6.68
389.372	-0.48
389.834	-2.68
390.296	-3.48
390.758	-0.58
391.22	-7.18
391.682	-3.78
392.144	-0.18
392.606	-2.18
393.068	-0.28
393.529	2.12
393.991	-11.58
394.453	-4.98
394.915	-2.68
395.377	-4.58
395.838	-4.08
396.3	0.62
396.762	6.12
397.224	-3.18
397.685	2.22
398.147	-3.18
398.608	-9.08
399.07	-10.18
399.531	-4.98
399.993	-3.88
400.454	0.12
400.916	-3.28
401.377	-4.58
401.839	-7.28
402.3	-8.78
402.762	3.02
403.223	5.12
403.684	-5.68
404.145	-2.68
404.607	-3.48
405.068	-2.88
405.529	-5.38
405.99	-5.38
406.451	-10.48
406.913	-1.68
407.374	-0.88
407.835	-0.48
408.296	-3.48
408.757	-5.78
409.218	-6.28
409.679	-7.48
410.14	4.22
410.601	-0.78
411.062	0.92
411.522	0.12
411.983	-3.08
412.444	-9.68
412.905	-8.88
413.366	-12.28
413.826	-4.78
414.287	-6.88
414.748	-1.18
415.208	-3.48
415.669	0.72
416.13	3.72
416.59	-1.88
417.051	1.42
417.511	-2.88
417.972	-3.98
418.432	-5.58
418.893	0.22
419.353	2.62
419.814	3.92
420.274	-4.38
420.734	-5.98
421.195	2.62
421.655	-6.08
422.115	-5.88
422.576	-4.28
423.036	0.12
423.496	2.52
423.956	0.02
424.416	-4.28
424.876	-1.58
425.336	-1.18
425.797	-1.28
426.257	-0.68
426.717	-6.28
427.177	6.82
427.637	-8.68
428.097	-0.58
428.556	-8.88
429.016	2.92
429.476	-6.08
429.936	-3.28
430.396	-3.88
430.856	-4.88
431.315	-4.48
431.775	-7.38
432.235	2.72
432.694	-6.38
433.154	-3.08
433.614	-4.48
434.073	-2.98
434.533	-6.08
434.993	-4.68
435.452	0.72
435.912	2.12
436.371	3.82
436.83	-4.58
437.29	-2.68
437.749	3.02
438.209	-6.48
438.668	-2.48
439.127	-3.58
439.587	3.72
440.046	1.92
440.505	-3.78
440.964	-3.88
441.424	-4.58
441.883	-8.48
442.342	3.22
442.801	-6.28
443.26	-5.08
443.719	2.92
444.178	-4.78
444.637	-4.28
445.096	-9.58
445.555	-4.38
446.014	4.42
446.473	1.12
446.932	1.82
447.391	0.02
447.849	-0.78
448.308	-12.58
448.767	-11.58
449.226	-5.18
449.685	0.42
450.143	3.62
450.602	-6.88
451.061	-10.78
451.519	-1.98
451.978	-7.28
452.436	-2.28
452.895	-7.38
453.353	0.62
453.812	1.52
454.27	-3.48
454.729	3.82
455.187	-4.88
455.646	2.82
456.104	-6.48
456.562	-1.78
457.021	-0.68
457.479	0.62
457.937	-1.78
458.395	-1.88
458.854	-7.48
459.312	-1.18
459.77	-5.48
460.228	-3.88
460.686	-3.08
461.144	1.22
461.602	0.82
462.06	-2.28
462.518	3.02
462.976	-6.08
463.434	-5.18
463.892	-2.38
464.35	-6.48
464.808	0.22
465.266	-4.58
465.724	-1.38
466.181	0.62
466.639	-2.08
467.097	-0.18
467.555	0.82
468.012	5.72
468.47	-3.58
468.928	-3.78
469.385	4.22
469.843	5.32
470.3	-2.88
470.758	-2.78
471.215	-5.28
471.673	-2.08
472.13	-3.28
472.588	-1.18
473.045	-5.58
473.503	-2.78
473.96	-4.08
474.417	-7.88
474.875	-8.58
475.332	-0.98
475.789	-2.68
476.246	-1.18
476.704	-0.28
477.161	0.72
477.618	-12.28
478.075	-2.58
478.532	-2.08
478.989	-2.38
479.446	-5.18
479.903	4.42
480.36	1.02
480.817	-12.78
481.274	-0.58
481.731	0.42
482.188	-12.88
482.645	-4.08
483.102	-1.88
483.558	-4.48
484.015	2.52
484.472	2.42
484.929	-0.58
485.385	-0.88
485.842	-3.48
486.299	-6.18
486.755	-0.08
487.212	-2.28
487.668	-6.48
488.125	-1.08
488.582	5.62
489.038	3.62
489.494	-3.18
489.951	2.92
490.407	-2.48
490.864	-4.38
491.32	4.82
491.776	0.52
492.233	-2.28
492.689	-6.78
493.145	-3.08
493.602	-4.28
494.058	-4.28
494.514	0.92
494.97	3.32
495.426	-1.58
495.882	-3.88
496.338	-4.78
496.794	-3.68
497.251	-4.78
497.707	-3.88
498.163	-4.58
498.618	-7.28
499.074	-8.98
499.53	-6.48
499.986	1.82
500.442	-5.28
500.898	-7.28
501.354	-4.58
501.809	-3.88
502.265	-8.68
502.721	-1.38
503.177	5.72
503.632	-1.28
504.088	-1.98
504.543	1.12
504.999	-9.18
505.455	-7.18
505.91	-6.98
506.366	-1.78
506.821	-4.98
507.277	-6.48
507.732	-11.38
508.187	-7.58
508.643	-8.78
509.098	-6.58
509.553	7.92
510.009	1.12
510.464	-8.98
510.919	-3.08
511.375	-8.48
511.83	-2.98
512.285	-2.08
512.74	-2.58
513.195	4.92
513.65	-0.38
514.105	-0.78
514.56	-1.18
515.015	-1.78
515.47	5.32
515.925	3.52
516.38	6.72
516.835	5.52
517.29	1.22
517.745	-4.68
518.2	-4.18
518.655	0.32
519.109	1.92
519.564	0.72
520.019	1.02
520.474	-8.38
520.928	-2.08
521.383	6.22
521.838	-7.68
522.292	2.02
522.747	3.32
523.201	4.02
523.656	-1.38
524.11	0.22
524.565	-8.38
525.019	-10.28
525.474	-4.78
525.928	-8.88
526.382	-6.08
526.837	-3.58
527.291	-2.68
527.745	-7.38
528.2	0.42
528.654	-4.78
529.108	-4.48
529.562	-3.88
530.016	-7.08
530.47	-7.68
530.925	-6.38
531.379	-0.68
531.833	-0.28
532.287	-2.68
532.741	-4.88
533.195	-12.38
533.649	-4.28
534.103	6.32
534.556	-11.18
535.01	-8.18
535.464	-9.78
535.918	2.32
536.372	-7.18
536.826	-1.48
537.279	-5.88
537.733	-3.88
538.187	-8.28
538.64	-9.78
539.094	-8.48
539.548	0.42
540.001	-6.48
540.455	-7.08
540.908	-7.18
541.362	1.22
541.815	-2.48
542.269	-1.58
542.722	-5.78
543.175	-2.08
543.629	-2.88
544.082	0.32
544.536	-8.28
544.989	-4.48
545.442	1.42
545.895	-2.88
546.349	-2.28
546.802	-7.48
547.255	-1.68
547.708	-5.68
548.161	-2.08
548.614	-9.68
549.067	-1.68
549.52	-4.88
549.973	-7.08
550.426	-0.88
550.879	-7.48
551.332	-6.88
551.785	-4.18
552.238	-6.08
552.691	-0.48
553.144	-0.88
553.596	-8.88
554.049	-12.18
554.502	-4.48
554.955	-5.68
555.407	-8.58
555.86	-5.58
556.313	-4.38
556.765	-6.08
557.218	1.52
557.67	-1.88
558.123	-1.18
558.576	-6.58
559.028	-2.88
559.48	-4.28
559.933	2.02
560.385	0.02
560.838	2.92
561.29	-6.28
561.742	-3.68
562.195	-8.68
562.647	-4.78
563.099	-1.28
563.551	2.32
564.004	2.02
564.456	0.72
564.908	-3.18
565.36	-2.18
565.812	0.52
566.264	-4.88
566.716	-2.08
567.168	2.62
567.62	2.52
568.072	-6.18
568.524	3.02
568.976	0.22
569.428	-1.88
569.88	-5.18
570.332	-3.28
570.784	2.12
571.235	-10.28
571.687	-3.68
572.139	0.12
572.59	0.42
573.042	-0.38
573.494	-7.08
573.945	-5.58
574.397	-5.98
574.849	-1.98
575.3	-1.38
575.752	-4.78
576.203	0.52
576.655	4.62
577.106	-3.08
577.557	-4.78
578.009	-2.68
578.46	-3.98
578.912	-2.28
579.363	-10.98
579.814	-3.78
580.265	-7.58
580.717	-5.98
581.168	-3.88
581.619	-0.68
582.07	1.72
582.521	-0.38
582.972	-11.28
583.423	-2.18
583.875	-2.18
584.326	-4.68
584.777	-6.08
585.227	-3.68
585.678	-6.48
586.129	-4.18
586.58	-0.38
587.031	-1.68
587.482	-4.38
587.933	-0.98
588.384	-2.48
588.834	-0.08
589.285	-0.98
589.736	0.22
590.186	-6.58
590.637	-1.98
591.088	-4.18
591.538	-1.58
591.989	-0.08
592.439	-1.98
592.89	-1.08
593.34	-4.58
593.791	0.22
594.241	-1.38
594.692	-1.48
595.142	-3.18
595.593	-4.38
596.043	-2.88
596.493	-6.28
596.943	-6.48
597.394	-3.38
597.844	-14.88
598.294	-8.58
598.744	3.72
599.195	2.32
599.645	-4.28
600.095	-2.98
600.545	-0.08
600.995	-8.28
601.445	-0.48
601.895	-11.98
602.345	0.22
602.795	-7.68
603.245	-4.08
603.695	-3.88
604.145	-3.38
604.594	-5.08
605.044	-5.18
605.494	-3.18
605.944	-17.18
606.393	0.62
606.843	-1.88
607.293	1.32
607.743	-4.78
608.192	-7.38
608.642	-0.38
609.091	-0.58
609.541	-2.38
609.99	-2.88
610.44	1.72
610.889	-2.98
611.339	-8.08
611.788	-9.58
612.238	-1.58
612.687	5.02
613.136	-2.28
613.586	-0.78
614.035	-9.88
614.484	-8.28
614.933	-10.88
615.383	0.22
615.832	6.12
616.281	3.62
616.73	4.12
617.179	-5.58
617.628	-2.78
618.077	0.92
618.526	-5.08
618.975	3.02
619.424	3.02
619.873	-6.18
620.322	4.42
620.771	-7.18
621.22	-3.58
621.669	-4.78
622.118	-0.68
622.567	-6.48
623.015	-5.38
623.464	3.32
623.913	-0.08
624.361	-10.58
624.81	-4.38
625.259	-4.78
625.707	3.12
626.156	-5.68
626.604	-0.98
627.053	-2.48
627.501	-5.08
627.95	-10.08
628.398	-8.38
628.847	-9.18
629.295	-4.88
629.744	-3.48
630.192	0.52
630.64	5.32
631.089	-3.98
631.537	0.92
631.985	-3.18
632.433	1.42
632.881	-2.38
633.33	1.72
633.778	-5.78
634.226	-6.78
634.674	-7.18
635.122	-1.68
635.57	-2.28
636.018	-3.08
636.466	2.42
636.914	-4.08
637.362	2.32
637.81	-0.98
638.258	1.22
638.705	-1.78
639.153	0.42
639.601	-7.88
640.049	-8.08
640.497	-3.18
640.944	6.82
641.392	-3.98
641.84	0.12
642.287	-0.28
642.735	-5.78
643.182	-0.68
643.63	-2.28
644.078	-3.58
644.525	-4.18
644.973	-9.78
645.42	-6.28
645.867	-6.88
646.315	4.32
646.762	-0.88
647.21	-4.18
647.657	-9.68
648.104	-3.08
648.551	0.52
648.999	-4.88
649.446	-4.28
649.893	-4.88
650.34	-4.58
650.787	-6.58
651.234	8.52
651.682	-7.88
652.129	-2.48
652.576	-3.88
653.023	3.02
653.47	3.82
653.917	-4.18
654.363	1.12
654.81	-8.68
655.257	-12.18
655.704	-5.68
656.151	-5.68
656.598	-3.28
657.044	-3.78
657.491	-4.78
657.938	-2.38
658.385	-0.68
658.831	0.12
659.278	7.22
659.724	-3.58
660.171	1.82
660.618	-2.98
661.064	-0.18
661.511	-1.98
661.957	-2.18
662.404	-7.88
662.85	4.62
663.296	-0.78
663.743	-1.88
664.189	1.82
664.635	-4.18
665.082	-2.08
665.528	-1.88
665.974	-4.48
666.42	-3.28
666.867	-0.98
667.313	-4.58
667.759	-1.08
668.205	-3.38
668.651	-1.68
669.097	-1.88
669.543	-5.08
669.989	-1.88
670.435	0.72
670.881	-13.18
671.327	-8.78
671.773	3.72
672.219	-2.78
672.665	-0.88
673.11	-9.58
673.556	-1.28
674.002	-1.18
674.448	-8.58
674.893	4.12
675.339	1.52
675.785	-4.98
676.23	-3.88
676.676	-6.18
677.122	-3.88
677.567	-9.58
678.013	6.92
678.458	-1.78
678.904	1.72
679.349	-2.58
679.794	-5.28
680.24	-4.28
680.685	-5.48
681.131	-5.88
681.576	-4.68
682.021	-1.58
682.466	-1.28
682.912	-8.38
683.357	-13.68
683.802	-1.68
684.247	-3.28
684.692	-2.78
685.137	-11.28
685.583	3.82
686.028	-6.28
686.473	-1.28
686.918	-0.38
687.363	-0.38
687.807	4.82
688.252	-5.38
688.697	0.42
689.142	-4.08
689.587	-4.28
690.032	-13.58
690.477	-4.88
690.921	-5.68
691.366	-2.68
691.811	-3.18
692.255	5.02
692.7	2.32
693.145	-1.08
693.589	-2.58
694.034	-3.18
694.478	-1.08
694.923	5.32
695.367	-4.68
695.812	-4.38
696.256	-1.58
696.701	-5.58
697.145	2.32
697.59	-2.48
698.034	-0.78
698.478	3.42
698.922	1.02
699.367	-3.08
699.811	6.02
700.255	-2.78
700.699	0.42
701.143	-4.48
701.588	-3.88
702.032	3.02
702.476	-10.98
702.92	-0.58
703.364	-3.18
703.808	-0.08
704.252	-4.18
704.696	-9.78
705.14	-3.68
705.584	-1.88
706.027	2.22
706.471	-4.68
706.915	-5.98
707.359	-2.38
707.803	-10.88
708.246	-3.28
708.69	2.22
709.134	3.52
709.577	-4.98
710.021	5.62
710.465	-0.28
710.908	-11.58
711.352	-8.18
711.795	-4.48
712.239	1.52
712.682	-9.68
713.126	-4.08
713.569	-4.78
714.012	4.12
714.456	-6.38
714.899	-4.88
715.342	-0.18
715.786	-7.68
716.229	1.02
716.672	0.62
717.115	1.02
717.558	-0.78
718.002	-7.28
718.445	-6.78
718.888	4.82
719.331	-7.58
719.774	-4.98
720.217	-0.98
720.66	-1.68
721.103	-3.28
721.546	0.12
721.989	3.02
722.432	-9.58
722.874	-1.68
723.317	-12.08
723.76	-10.88
724.203	-2.68
724.645	3.42
725.088	-5.08
725.531	-8.68
725.974	-6.78
726.416	-4.88
726.859	-7.28
727.301	-6.08
727.744	-7.58
728.187	-8.48
728.629	1.82
729.071	-7.58
729.514	2.42
729.956	-11.88
730.399	-6.78
730.841	1.42
731.283	-2.58
731.726	-2.58
732.168	-6.98
732.61	-0.08
733.053	1.22
733.495	-6.08
733.937	-8.08
734.379	-3.38
734.821	-6.58
735.263	-4.48
735.705	-4.48
736.148	-3.08
736.59	1.72
737.032	-3.08
737.474	-1.78
737.916	-2.38
738.357	-1.78
738.799	-0.78
739.241	-2.48
739.683	-3.28
740.125	-2.68
740.567	-3.78
741.008	5.02
741.45	2.32
741.892	-1.78
742.334	0.42
742.775	-3.58
743.217	-0.58
743.658	-8.38
744.1	-4.18
744.542	-7.08
744.983	0.62
745.425	-3.48
745.866	-5.18
746.307	1.02
746.749	-4.88
747.19	-1.38
747.632	-2.18
748.073	-5.98
748.514	-1.28
748.956	-5.38
749.397	-4.88
749.838	-0.68
750.279	-6.88
750.72	-4.18
751.162	-3.18
751.603	-2.98
752.044	-3.98
752.485	-14.88
752.926	-2.48
753.367	-3.78
753.808	-4.88
754.249	-5.58
754.69	-2.38
755.131	-6.38
755.572	-2.88
756.013	-10.68
756.453	-4.68
756.894	-2.88
757.335	-0.68
757.776	3.92
758.216	-0.88
758.657	-4.08
759.098	-7.78
759.538	-2.28
759.979	-9.38
760.42	-6.88
760.86	-7.68
761.301	0.72
761.741	1.42
762.182	-6.48
762.622	4.22
763.063	-5.28
763.503	-3.58
763.943	-4.68
764.384	1.22
764.824	1.92
765.264	-3.38
765.705	-2.08
766.145	-12.98
766.585	-9.98
767.025	-3.18
767.465	-9.08
767.906	-4.98
768.346	-0.68
768.786	-3.38
769.226	-11.58
769.666	0.62
770.106	-7.28
770.546	-2.98
770.986	-3.88
771.426	-10.78
771.866	0.32
772.306	0.82
772.745	-5.68
773.185	-8.88
773.625	-0.18
774.065	-9.08
774.505	-0.08
774.944	-7.78
775.384	-1.18
775.824	0.32
776.263	-3.28
776.703	-0.48
777.142	-4.68
777.582	-7.28
778.021	-2.88
778.461	-0.38
778.9	2.22
779.34	1.92
779.779	-11.78
780.219	-9.88
780.658	-8.68
781.097	1.22
781.537	0.72
781.976	-5.18
782.415	-4.38
782.855	-1.78
783.294	-9.78
783.733	-1.38
784.172	-4.48
784.611	-5.58
785.05	2.52
785.489	-2.38
785.928	0.22
786.367	3.52
786.806	-3.78
787.245	0.82
787.684	-5.78
788.123	-1.78
788.562	-1.98
789.001	-0.98
789.44	-2.38
789.879	-2.78
790.317	-5.28
790.756	-1.18
791.195	-3.28
791.634	-3.48
792.072	4.62
792.511	-3.98
792.95	-4.08
793.388	0.42
793.827	8.52
794.265	-7.48
794.704	-6.58
795.142	4.02
795.581	-3.28
796.019	4.22
796.458	-1.88
796.896	-5.48
797.334	-1.58
797.773	-2.68
798.211	7.62
798.649	-1.38
799.087	-6.08
799.526	-5.28
799.964	-5.88
800.402	3.72
800.84	-2.88
801.278	-9.08
801.716	-3.48
802.154	-0.58
802.592	1.42
803.03	2.42
803.468	-7.88
803.906	-5.08
804.344	-2.48
804.782	0.32
805.22	-7.28
805.658	-9.38
806.096	5.02
806.533	-3.28
806.971	4.92
807.409	0.22
807.847	-2.48
808.284	-9.78
808.722	-4.68
809.16	-4.88
809.597	2.62
810.035	-6.88
810.472	0.82
810.91	2.12
811.347	4.82
811.785	7.22
812.222	0.82
812.66	-4.18
813.097	1.42
813.535	-6.88
813.972	-1.68
814.409	-3.78
814.846	-2.78
815.284	-0.58
815.721	-2.38
816.158	1.92
816.595	-1.78
817.032	-2.38
817.47	2.52
817.907	2.12
818.344	1.52
818.781	-6.68
819.218	-9.58
819.655	-6.48
820.092	0.02
820.529	-8.58
820.966	-4.18
821.403	-2.48
821.839	-1.28
822.276	-4.28
822.713	-0.88
823.15	0.62
823.587	-0.18
824.023	0.22
824.46	0.02
824.897	-1.28
825.333	-0.58
825.77	2.32
826.206	-4.88
826.643	3.92
827.08	5.32
827.516	-7.58
827.953	-3.98
828.389	1.02
828.825	-4.98
829.262	-4.98
829.698	-6.58
830.135	-3.28
830.571	-2.88
831.007	-1.78
831.443	-6.78
831.88	-6.18
832.316	-2.38
832.752	-0.28
833.188	-1.88
833.624	-4.98
834.06	-2.38
834.497	-5.58
834.933	-4.68
835.369	0.72
835.805	-8.78
836.241	-6.28
836.677	1.32
837.112	0.72
837.548	-6.58
837.984	-3.78
838.42	-9.18
838.856	-4.98
839.292	-4.58
839.727	-7.08
840.163	-0.68
840.599	-8.48
841.034	-5.18
841.47	-7.18
841.906	-2.98
842.341	-7.58
842.777	1.92
843.212	-3.48
843.648	-3.28
844.083	-5.08
844.519	0.52
844.954	-3.18
845.39	-8.78
845.825	-3.28
846.261	-4.98
846.696	-2.58
847.131	-1.98
847.566	7.82
848.002	-8.98
848.437	-6.58
848.872	-2.48
849.307	-9.18
849.742	-10.98
850.177	-2.48
850.613	1.22
851.048	-9.18
851.483	-6.78
851.918	-8.88
852.353	-4.68
852.788	-11.78
853.223	3.52
853.657	-0.48
854.092	0.62
854.527	-1.08
854.962	4.52
855.397	-2.78
855.832	1.02
856.266	-4.08
856.701	-6.68
857.136	-5.68
857.57	-3.28
858.005	-7.28
858.44	6.82
858.874	-8.98
859.309	0.72
859.743	-11.58
860.178	-0.38
860.612	-2.98
861.047	-1.08
861.481	-2.78
861.915	-2.68
862.35	0.72
862.784	-6.98
863.218	0.92
863.653	-5.38
864.087	3.22
864.521	-0.38
864.955	-3.18
865.39	-2.88
865.824	-8.48
866.258	-0.28
866.692	-6.78
867.126	-0.28
867.56	-2.38
867.994	-4.88
868.428	-2.68
868.862	-0.48
869.296	1.22
869.73	5.02
870.164	-8.88
870.598	-7.88
871.031	-2.58
871.465	-7.48
871.899	6.22
872.333	-3.98
872.766	0.52
873.2	-5.48
873.634	2.22
874.067	-1.68
874.501	3.52
874.935	5.32
875.368	-1.08
875.802	-7.68
876.235	-2.38
876.669	-4.98
877.102	-8.88
877.535	4.02
877.969	-2.38
878.402	-3.88
878.836	-13.48
879.269	0.42
879.702	1.52
880.135	-4.88
880.569	3.02
881.002	-2.08
881.435	-2.48
881.868	-6.68
882.301	-0.48
882.734	-3.78
883.167	1.12
883.601	3.12
884.034	-0.68
884.467	-11.38
884.899	-1.38
885.332	-3.88
885.765	-10.98
886.198	-2.28
886.631	-1.98
887.064	-1.18
887.497	-1.08
887.929	3.32
888.362	-8.18
888.795	-10.28
889.228	0.12
889.66	4.92
890.093	1.02
890.526	-1.18
890.958	-6.28
891.391	0.22
891.823	8.02
892.256	-4.28
892.688	-5.18
893.121	-1.58
893.553	-3.48
893.985	2.92
894.418	-1.58
894.85	0.62
895.282	-1.88
895.715	-4.38
896.147	-1.88
896.579	1.42
897.011	-1.68
897.444	-5.78
897.876	-1.08
898.308	-0.08
898.74	-1.28
899.172	-3.58
899.604	2.02
900.036	-0.58
900.468	-2.38
900.9	-2.48
901.332	-7.48
901.764	-15.08
902.196	-7.28
902.628	-3.68
903.06	-2.98
903.491	2.12
903.923	-7.28
904.355	-2.98
904.787	-5.08
905.218	-7.28
905.65	-1.28
906.082	-4.58
906.513	-6.18
906.945	-3.68
907.376	-7.68
907.808	4.62
908.239	1.32
908.671	-0.98
909.102	-0.08
909.534	-5.78
909.965	3.72
910.397	-3.98
910.828	-1.68
911.259	-2.48
911.691	-2.88
912.122	-6.18
912.553	-4.68
912.984	1.52
913.415	6.42
913.847	0.32
914.278	-6.28
914.709	-5.98
915.14	2.32
915.571	4.72
916.002	-6.78
916.433	6.62
916.864	2.12
917.295	-3.48
917.726	3.32
918.157	-4.48
918.587	-1.58
919.018	-5.28
919.449	-2.58
919.88	-1.78
920.311	-0.38
920.741	-6.08
921.172	-7.88
921.603	-5.28
922.033	-11.18
922.464	-5.28
922.895	-4.78
923.325	-0.88
923.756	-1.48
924.186	-4.88
924.617	-0.28
925.047	-9.68
925.478	-12.88
925.908	-5.48
926.338	-8.08
926.769	-7.28
927.199	2.82
927.629	-3.48
928.06	2.32
928.49	-2.78
928.92	-3.68
929.35	-0.88
929.78	1.02
930.21	0.02
930.641	-2.58
931.071	1.62
931.501	-1.18
931.931	-3.28
932.361	-3.68
932.791	-6.48
933.221	-4.88
933.651	-8.78
934.08	-8.28
934.51	9.62
934.94	-3.38
935.37	-6.28
935.8	5.82
936.229	3.62
936.659	0.12
937.089	-6.58
937.519	-5.68
937.948	3.22
938.378	1.82
938.807	-4.28
939.237	-2.38
939.666	-1.08
940.096	-11.88
940.525	-6.58
940.955	-1.48
941.384	-2.08
941.814	-9.68
942.243	-2.18
942.672	1.52
943.102	-0.38
943.531	-0.88
943.96	-2.18
944.39	-7.68
944.819	-6.18
945.248	-4.28
945.677	1.12
946.106	-2.88
946.535	3.22
946.964	-5.98
947.393	0.42
947.822	-4.98
948.251	-2.18
948.68	2.02
949.109	-1.38
949.538	1.62
949.967	0.62
950.396	-3.68
950.825	-5.88
951.254	-3.28
951.682	-2.58
952.111	0.32
952.54	0.72
952.969	-7.28
953.397	-8.78
953.826	0.92
954.254	-10.48
954.683	0.02
955.112	-5.18
955.54	-7.38
955.969	-3.28
956.397	-5.38
956.826	-0.58
957.254	0.62
957.682	-3.48
958.111	0.02
958.539	-1.88
958.967	-0.18
959.396	-7.88
959.824	-7.18
960.252	-0.88
960.68	-6.08
961.109	-4.98
961.537	-3.58
961.965	-4.68
962.393	0.62
962.821	-4.68
963.249	-5.28
963.677	-2.68
964.105	-8.78
964.533	-11.58
964.961	-2.98
965.389	-2.68
965.817	-6.58
966.245	-5.48
966.672	-0.48
967.1	-9.18
967.528	1.02
967.956	-4.68
968.383	1.52
968.811	-2.98
969.239	-1.28
969.666	-6.18
970.094	1.02
970.522	-5.18
970.949	2.42
971.377	-1.98
971.804	1.12
972.232	-0.18
972.659	-4.78
973.087	-1.08
973.514	-5.58
973.941	-6.28
974.369	2.82
974.796	2.62
975.223	0.32
975.651	-3.98
976.078	-1.48
976.505	-2.48
976.932	-1.38
977.359	-7.48
977.786	0.92
978.214	-7.08
978.641	-7.78
979.068	-7.28
979.495	-0.98
979.922	-7.28
980.349	-3.78
980.776	2.12
981.202	-3.88
981.629	7.82
982.056	4.72
982.483	-5.38
982.91	4.42
983.337	-5.78
983.763	2.52
984.19	-2.58
984.617	-4.08
985.043	-10.78
985.47	-5.38
985.897	-5.78
986.323	-7.98
986.75	10.62
987.176	-2.88
987.603	2.32
988.029	5.32
988.456	0.82
988.882	2.42
989.308	-4.98
989.735	0.82
990.161	-1.38
990.587	-5.98
991.014	-2.28
991.44	3.62
991.866	-0.58
992.292	-1.98
992.719	-4.98
993.145	1.92
993.571	-11.28
993.997	-3.58
994.423	-2.28
994.849	-8.78
995.275	-0.18
995.701	-3.18
996.127	-4.78
996.553	-1.58
996.979	-2.68
997.405	-8.28
997.83	-1.48
998.256	-6.18
998.682	-1.68
999.108	-9.28
999.534	-2.58
999.959	-1.48
1000.385	-6.98
1000.811	-4.18
1001.236	-5.58
1001.662	-9.28
1002.087	-7.38
1002.513	4.52
1002.938	1.52
1003.364	-2.88
1003.789	-2.38
1004.215	0.42
1004.64	-5.18
1005.066	4.22
1005.491	0.92
1005.916	-1.38
1006.342	-2.98
1006.767	-9.28
1007.192	3.42
1007.617	-4.68
1008.042	-6.28
1008.468	-6.38
1008.893	-8.08
1009.318	-1.18
1009.743	-5.88
1010.168	-3.78
1010.593	-3.28
1011.018	-11.88
1011.443	-6.68
1011.868	-4.38
1012.293	-3.48
1012.718	-6.28
1013.143	0.02
1013.567	-4.58
1013.992	-4.78
1014.417	-6.58
1014.842	-1.08
1015.267	-8.38
1015.691	-7.28
1016.116	-0.48
1016.541	-3.68
1016.965	0.62
1017.39	0.92
1017.814	-2.48
1018.239	-1.38
1018.663	-5.88
1019.088	-8.08
1019.512	-0.38
1019.937	1.22
1020.361	1.12
1020.785	-8.78
1021.21	-1.08
1021.634	-2.38
1022.058	4.82
1022.483	2.62
1022.907	-1.98
1023.331	-2.28
1023.755	-8.28
1024.179	-2.18
1024.604	-6.28
1025.028	-2.38
1025.452	-5.58
1025.876	0.82
1026.3	1.82
1026.724	-3.98
1027.148	-6.38
1027.572	-10.48
1027.996	-3.58
1028.42	-2.68
1028.843	-6.48
1029.267	-3.98
1029.691	-1.18
1030.115	-6.08
1030.539	-5.78
1030.962	-8.58
1031.386	-12.68
1031.81	-2.78
1032.233	-0.38
1032.657	2.92
1033.08	4.92
1033.504	0.32
1033.927	-4.28
1034.351	4.02
1034.774	-3.58
1035.198	-1.68
1035.621	-3.18
1036.045	-5.28
1036.468	1.42
1036.891	-7.48
1037.315	-8.58
1037.738	-10.08
1038.161	0.62
1038.584	-3.88
1039.008	-2.68
1039.431	-5.88
1039.854	-5.78
1040.277	-4.38
1040.7	-4.78
1041.123	2.42
1041.546	-8.98
1041.969	-6.38
1042.392	-4.58
1042.815	3.02
1043.238	0.22
1043.661	-2.68
1044.084	-8.68
1044.507	-5.08
1044.93	-8.58
1045.352	-4.58
1045.775	-0.78
1046.198	0.12
1046.621	-6.28
1047.043	2.92
1047.466	12.52
1047.889	-1.68
1048.311	-4.28
1048.734	0.32
1049.156	1.62
1049.579	-0.28
1050.001	-5.18
1050.424	-2.08
1050.846	-1.78
1051.269	2.22
1051.691	-1.88
1052.113	-5.18
1052.536	5.02
1052.958	5.82
1053.38	-1.08
1053.802	-11.08
1054.225	2.42
1054.647	-7.08
1055.069	-3.88
1055.491	0.32
1055.913	-7.88
1056.335	3.62
1056.757	-7.48
1057.179	-4.88
1057.601	-2.48
1058.023	-9.78
1058.445	-3.98
1058.867	-1.38
1059.289	-2.98
1059.711	-6.58
1060.133	-1.88
1060.555	-2.58
1060.976	-5.58
1061.398	-6.68
1061.82	-2.48
1062.241	0.42
1062.663	-6.18
1063.085	-1.88
1063.506	3.52
1063.928	-2.08
1064.35	-0.78
1064.771	-12.88
1065.193	-1.48
1065.614	-7.78
1066.035	-0.48
1066.457	-6.58
1066.878	4.72
1067.3	-6.18
1067.721	3.92
1068.142	-2.78
1068.564	-2.58
1068.985	-2.98
1069.406	-9.38
1069.827	-2.68
1070.248	3.82
1070.67	-8.38
1071.091	-7.88
1071.512	-1.18
1071.933	-4.88
1072.354	-8.68
1072.775	-1.78
1073.196	-5.88
1073.617	-5.38
1074.038	-0.68
1074.459	-0.58
1074.88	-3.78
1075.3	3.52
1075.721	-6.88
1076.142	3.02
1076.563	3.82
1076.983	-11.68
1077.404	-2.08
1077.825	-4.18
1078.246	-1.98
1078.666	-11.88
1079.087	-2.78
1079.507	-4.58
1079.928	-0.18
1080.348	1.62
1080.769	-1.98
1081.189	-2.18
1081.61	-3.68
1082.03	0.52
1082.451	-8.88
1082.871	0.02
1083.291	-0.68
1083.711	-5.28
1084.132	-0.98
1084.552	-9.58
1084.972	-1.48
1085.392	-9.98
1085.813	-6.98
1086.233	-2.78
1086.653	-1.48
1087.073	1.22
1087.493	-2.38
1087.913	-9.08
1088.333	-9.38
1088.753	-7.58
1089.173	4.62
1089.593	-1.48
1090.013	0.92
1090.433	1.32
1090.852	-4.08
1091.272	-8.48
1091.692	-0.78
1092.112	1.02
1092.531	-8.38
1092.951	-8.28
1093.371	-3.38
1093.79	1.42
1094.21	-0.38
1094.63	-3.98
1095.049	-4.78
1095.469	-1.58
1095.888	-0.88
1096.308	1.22
1096.727	6.52
1097.146	-4.88
1097.566	1.72
1097.985	-6.98
1098.405	0.42
1098.824	-1.18
1099.243	-5.58
1099.662	-7.18
1100.082	-2.28
1100.501	0.22
1100.92	-5.38
1101.339	-7.68
1101.758	-5.68
