Data from 20171114-ORNL-Ar_H_NY_Subt18_08-03-09-651.txt Node
Date: Tue Nov 14 08:03:09 EST 2017
User: Ender
Spectrometer: HR+D1039
Trigger mode: 0
Integration Time (sec): 2.730000E-2
Scans to average: 10
Electric dark correction enabled: true
Nonlinearity correction enabled: false
Boxcar width: 0
XAxis mode: Wavelengths
Number of Pixels in Spectrum: 2048
>>>>>Begin Spectral Data<<<<<
187.836	-4.62
188.309	-4.62
188.782	-4.62
189.255	-1.23
189.728	-0.42
190.201	6.27
190.674	3.77
191.147	-1.03
191.619	-7.33
192.092	-1.73
192.565	9.57
193.038	0.17
193.511	0.57
193.984	4.48
194.456	-2.83
194.929	1.48
195.402	-3.93
195.874	-3.23
196.347	-1.83
196.82	-7.52
197.292	5.17
197.765	0.58
198.237	-4.83
198.71	0.77
199.182	2.27
199.655	1.57
200.127	-2.93
200.6	-2.43
201.072	-3.03
201.544	-2.92
202.017	1.77
202.489	5.38
202.961	-1.02
203.433	-5.33
203.906	-8.23
204.378	-7.82
204.85	-7.13
205.322	-5.12
205.794	-3.63
206.266	-1.73
206.739	-7.23
207.211	4.48
207.683	-9.12
208.155	-4.33
208.627	-5.93
209.099	-3.02
209.57	-7.82
210.042	-10.63
210.514	-4.82
210.986	-8.33
211.458	-13.33
211.93	-1.53
212.402	3.77
212.873	-10.43
213.345	-6.33
213.817	-8.43
214.288	-7.43
214.76	-8.03
215.232	-2.73
215.703	-3.62
216.175	-8.93
216.646	-6.23
217.118	-8.23
217.589	-3.42
218.061	4.27
218.532	-6.42
219.004	-2.43
219.475	-11.33
219.946	-4.23
220.418	-7.52
220.889	-2.62
221.36	0.18
221.832	-7.62
222.303	-9.42
222.774	-0.83
223.245	-6.73
223.717	-8.12
224.188	0.77
224.659	-7.83
225.13	-10.23
225.601	-0.83
226.072	-2.02
226.543	-0.53
227.014	-3.83
227.485	-0.43
227.956	-2.42
228.427	-3.12
228.898	-0.42
229.369	0.38
229.839	-6.52
230.31	-9.93
230.781	0.57
231.252	-7.83
231.722	-8.13
232.193	-2.02
232.664	-4.73
233.135	-2.43
233.605	-13.12
234.076	-8.93
234.546	-8.93
235.017	-1.42
235.487	-2.23
235.958	-5.12
236.428	-8.73
236.899	1.68
237.369	-3.82
237.84	-6.02
238.31	1.77
238.78	-3.23
239.251	-8.52
239.721	-8.62
240.191	-5.82
240.662	-4.62
241.132	-4.93
241.602	-8.13
242.072	-2.02
242.542	4.08
243.013	-6.43
243.483	-2.62
243.953	-4.42
244.423	-4.12
244.893	-9.12
245.363	3.27
245.833	-5.62
246.303	-4.83
246.773	-2.83
247.243	-1.73
247.712	-4.13
248.182	-1.43
248.652	-1.43
249.122	-13.13
249.592	1.07
250.061	-1.93
250.531	7.18
251.001	-10.52
251.471	1.38
251.94	-0.93
252.41	-10.12
252.879	-6.73
253.349	7.27
253.818	2.17
254.288	2.58
254.757	-4.52
255.227	-5.32
255.696	-4.12
256.166	-4.52
256.635	0.08
257.105	-1.73
257.574	-7.03
258.043	-7.02
258.513	-5.83
258.982	-2.32
259.451	-8.73
259.92	-2.33
260.389	-6.23
260.859	7.38
261.328	-1.02
261.797	-1.12
262.266	-2.12
262.735	-3.23
263.204	-2.23
263.673	-8.52
264.142	-2.52
264.611	-12.33
265.08	-5.12
265.549	-12.32
266.018	-4.12
266.487	-6.83
266.955	-10.23
267.424	-3.33
267.893	-7.92
268.362	-6.23
268.83	-16.12
269.299	-1.32
269.768	-3.62
270.236	-6.33
270.705	-8.23
271.174	-6.52
271.642	-7.53
272.111	-6.62
272.579	-7.33
273.048	-6.23
273.516	-7.23
273.985	-5.62
274.453	-5.02
274.922	1.97
275.39	-2.83
275.858	-9.12
276.327	-3.12
276.795	4.67
277.263	-9.93
277.731	3.37
278.2	-7.53
278.668	-9.02
279.136	-3.43
279.604	-9.02
280.072	-7.83
280.54	-4.62
281.008	-2.43
281.477	-3.03
281.945	-1.83
282.413	-3.93
282.881	0.67
283.348	-8.92
283.816	-4.03
284.284	-4.23
284.752	4.37
285.22	1.48
285.688	-3.23
286.156	-2.62
286.623	6.17
287.091	-5.02
287.559	-10.62
288.026	-4.42
288.494	1.57
288.962	-9.43
289.429	-10.33
289.897	1.58
290.364	0.88
290.832	-5.23
291.3	-2.42
291.767	-2.52
292.234	-0.12
292.702	-4.42
293.169	-7.02
293.637	2.08
294.104	-7.12
294.571	-10.43
295.039	-7.83
295.506	-4.02
295.973	-4.93
296.44	-11.62
296.908	-1.73
297.375	-5.12
297.842	-4.62
298.309	-10.62
298.776	-7.02
299.243	-1.93
299.71	-7.33
300.177	-3.33
300.644	0.08
301.111	-4.42
301.578	-3.23
302.045	-11.02
302.512	-2.02
302.979	4.38
303.446	-6.23
303.913	-8.02
304.379	-11.73
304.846	5.98
305.313	-4.23
305.78	-4.23
306.246	-1.23
306.713	-7.53
307.18	-5.52
307.646	-1.33
308.113	-1.23
308.579	-6.53
309.046	-3.23
309.512	-1.23
309.979	-6.83
310.445	-5.83
310.912	-3.33
311.378	0.67
311.845	-3.32
312.311	1.88
312.777	-2.53
313.244	8.48
313.71	9.88
314.176	1.68
314.642	-4.02
315.109	-10.83
315.575	-1.12
316.041	-2.52
316.507	-3.13
316.973	-11.23
317.439	-6.62
317.905	1.27
318.371	-0.43
318.837	-0.82
319.303	-1.43
319.769	-1.02
320.235	-9.62
320.701	0.67
321.167	-5.23
321.633	-8.23
322.099	-5.83
322.564	2.38
323.03	-3.62
323.496	-4.42
323.962	-3.52
324.427	-5.02
324.893	8.07
325.359	-2.53
325.824	-1.33
326.29	-9.33
326.755	-2.23
327.221	-3.93
327.686	-5.83
328.152	-2.23
328.617	-5.83
329.083	0.77
329.548	0.57
330.014	2.08
330.479	-10.63
330.944	-2.43
331.41	-7.62
331.875	-0.32
332.34	-2.12
332.805	-9.43
333.271	-2.62
333.736	-11.12
334.201	-1.02
334.666	-1.03
335.131	-4.33
335.596	-3.33
336.061	-3.62
336.526	-12.13
336.991	-8.02
337.456	5.98
337.921	-2.23
338.386	0.38
338.851	-2.23
339.316	-3.83
339.781	-5.12
340.246	1.58
340.711	-2.53
341.175	-0.73
341.64	-11.62
342.105	-7.23
342.569	-0.33
343.034	-4.03
343.499	2.98
343.963	-2.62
344.428	6.88
344.893	-4.33
345.357	-2.62
345.822	-4.13
346.286	-7.43
346.751	-2.82
347.215	-4.12
347.679	-12.02
348.144	-2.53
348.608	0.77
349.073	-3.43
349.537	-0.62
350.001	-7.62
350.465	0.98
350.93	-5.52
351.394	1.08
351.858	-9.62
352.322	-1.73
352.786	-3.12
353.25	-4.12
353.715	-1.42
354.179	-3.63
354.643	-1.02
355.107	-3.73
355.571	-2.42
356.035	-2.02
356.498	-6.83
356.962	-2.53
357.426	-2.23
357.89	-1.62
358.354	-3.43
358.818	-6.33
359.281	-7.73
359.745	-5.32
360.209	-6.52
360.673	-9.52
361.136	-0.32
361.6	1.57
362.064	-3.02
362.527	-3.73
362.991	-0.43
363.454	-9.12
363.918	-15.43
364.381	-5.83
364.845	-7.12
365.308	-2.73
365.772	-3.53
366.235	-5.93
366.698	-6.33
367.162	-4.03
367.625	-3.23
368.088	-6.03
368.552	-1.43
369.015	-6.73
369.478	3.88
369.941	1.97
370.404	-7.63
370.867	-5.23
371.331	-4.13
371.794	-10.53
372.257	-9.83
372.72	-3.53
373.183	-4.52
373.646	-12.02
374.109	-11.73
374.572	-6.23
375.035	-10.03
375.497	-7.03
375.96	1.27
376.423	-10.43
376.886	-0.73
377.349	-4.73
377.811	-8.42
378.274	-8.42
378.737	-3.93
379.199	-2.52
379.662	-3.12
380.125	-0.82
380.587	-5.52
381.05	-9.02
381.512	-7.03
381.975	-0.12
382.437	-8.52
382.9	-6.12
383.362	-4.52
383.825	-8.73
384.287	-2.23
384.75	-9.23
385.212	-1.33
385.674	1.97
386.136	-3.32
386.599	-1.93
387.061	1.48
387.523	-5.02
387.985	-2.83
388.447	1.57
388.91	-3.62
389.372	3.58
389.834	-6.53
390.296	-7.83
390.758	-3.02
391.22	-5.33
391.682	-1.23
392.144	1.38
392.606	3.47
393.068	-0.32
393.529	2.07
393.991	-10.73
394.453	-4.93
394.915	-0.73
395.377	0.08
395.838	-5.43
396.3	-2.62
396.762	1.18
397.224	-2.43
397.685	-2.33
398.147	-3.12
398.608	-8.02
399.07	-12.42
399.531	-6.62
399.993	-11.62
400.454	0.07
400.916	-6.03
401.377	-9.12
401.839	-2.03
402.3	-10.53
402.762	-1.02
403.223	-0.83
403.684	1.47
404.145	-4.23
404.607	-0.62
405.068	-4.83
405.529	-3.12
405.99	-6.83
406.451	-14.13
406.913	-5.53
407.374	-8.62
407.835	-4.52
408.296	-3.62
408.757	-0.73
409.218	-2.53
409.679	-0.52
410.14	-3.73
410.601	0.77
411.062	4.38
411.522	-3.12
411.983	-13.23
412.444	-12.23
412.905	-2.02
413.366	-9.62
413.826	-3.52
414.287	-4.52
414.748	-2.73
415.208	-10.63
415.669	-4.53
416.13	8.37
416.59	-3.93
417.051	10.38
417.511	-3.03
417.972	-6.52
418.432	-6.92
418.893	-0.12
419.353	-4.12
419.814	-1.53
420.274	-4.63
420.734	-8.83
421.195	3.87
421.655	-10.32
422.115	-3.53
422.576	-1.43
423.036	-2.83
423.496	-4.73
423.956	-3.23
424.416	-3.63
424.876	-2.52
425.336	-2.93
425.797	-6.73
426.257	3.67
426.717	-6.73
427.177	2.17
427.637	-5.02
428.097	-3.53
428.556	-10.62
429.016	-4.03
429.476	-11.93
429.936	-4.12
430.396	-6.83
430.856	-12.03
431.315	5.67
431.775	2.67
432.235	0.67
432.694	-5.52
433.154	-2.52
433.614	-1.53
434.073	-5.02
434.533	-2.73
434.993	-8.83
435.452	-3.03
435.912	-9.53
436.371	-7.12
436.83	-5.23
437.29	4.47
437.749	-0.02
438.209	-5.53
438.668	-3.23
439.127	-7.02
439.587	2.18
440.046	-6.73
440.505	-6.82
440.964	-5.73
441.424	-11.62
441.883	-6.52
442.342	-0.12
442.801	-6.12
443.26	-5.73
443.719	1.77
444.178	-10.53
444.637	-16.42
445.096	-4.02
445.555	-2.33
446.014	0.98
446.473	-3.42
446.932	-1.43
447.391	-6.43
447.849	-7.23
448.308	-11.92
448.767	-9.93
449.226	-3.62
449.685	2.88
450.143	-0.03
450.602	-10.43
451.061	-8.33
451.519	-5.92
451.978	-8.62
452.436	-8.33
452.895	-7.23
453.353	-2.62
453.812	-1.92
454.27	0.97
454.729	-0.12
455.187	-7.43
455.646	-5.62
456.104	-4.12
456.562	-3.12
457.021	-4.03
457.479	-1.33
457.937	-2.62
458.395	-6.52
458.854	-6.52
459.312	-1.52
459.77	-13.33
460.228	-12.43
460.686	-13.93
461.144	6.88
461.602	-1.52
462.06	-4.23
462.518	-6.62
462.976	-4.13
463.434	-7.42
463.892	-6.73
464.35	-4.43
464.808	5.38
465.266	-7.92
465.724	-6.32
466.181	2.88
466.639	-5.62
467.097	0.27
467.555	-0.92
468.012	0.47
468.47	-2.62
468.928	3.17
469.385	1.27
469.843	0.38
470.3	6.48
470.758	-9.23
471.215	-10.62
471.673	-2.53
472.13	-5.23
472.588	4.27
473.045	2.68
473.503	-0.02
473.96	-9.23
474.417	-8.03
474.875	-4.93
475.332	-0.92
475.789	-1.73
476.246	3.17
476.704	-5.52
477.161	-4.23
477.618	-12.23
478.075	-2.42
478.532	1.77
478.989	-9.52
479.446	1.27
479.903	11.77
480.36	2.97
480.817	-8.13
481.274	3.07
481.731	4.48
482.188	-10.02
482.645	3.38
483.102	-6.33
483.558	-1.23
484.015	-0.62
484.472	-4.52
484.929	-4.12
485.385	-8.43
485.842	-1.73
486.299	-9.23
486.755	-3.63
487.212	-0.52
487.668	-5.53
488.125	1.97
488.582	0.68
489.038	-5.12
489.494	-11.33
489.951	-3.02
490.407	-9.02
490.864	-8.62
491.32	-3.23
491.776	2.98
492.233	-2.33
492.689	-10.02
493.145	-8.23
493.602	-4.03
494.058	-0.23
494.514	-6.73
494.97	3.48
495.426	-4.33
495.882	-3.83
496.338	1.98
496.794	1.27
497.251	-11.62
497.707	3.68
498.163	-5.93
498.618	-2.93
499.074	2.27
499.53	-4.62
499.986	-4.83
500.442	-6.62
500.898	-3.62
501.354	-12.73
501.809	1.37
502.265	-7.23
502.721	1.57
503.177	1.98
503.632	-4.12
504.088	1.57
504.543	-5.62
504.999	-5.83
505.455	-8.63
505.91	-8.42
506.366	-6.53
506.821	-7.43
507.277	-6.53
507.732	-6.63
508.187	-2.43
508.643	-9.12
509.098	-4.62
509.553	-1.53
510.009	-0.23
510.464	-11.83
510.919	-1.62
511.375	-10.23
511.83	-1.53
512.285	-2.73
512.74	1.48
513.195	1.58
513.65	-2.12
514.105	-5.63
514.56	-0.53
515.015	0.98
515.47	5.67
515.925	-7.42
516.38	2.47
516.835	4.17
517.29	-3.62
517.745	-1.92
518.2	-10.93
518.655	-6.93
519.109	-7.73
519.564	1.67
520.019	-8.03
520.474	-10.62
520.928	-8.12
521.383	-1.83
521.838	-4.93
522.292	-0.12
522.747	1.48
523.201	4.97
523.656	-1.83
524.11	-3.23
524.565	-7.02
525.019	-10.83
525.474	0.07
525.928	-4.32
526.382	-9.73
526.837	-6.83
527.291	0.57
527.745	-2.73
528.2	-4.52
528.654	-1.62
529.108	-9.12
529.562	-8.83
530.016	-12.73
530.47	-3.93
530.925	1.07
531.379	-7.83
531.833	-8.73
532.287	-5.73
532.741	-10.52
533.195	-5.23
533.649	-1.53
534.103	4.08
534.556	-4.63
535.01	-8.43
535.464	-9.33
535.918	-5.32
536.372	0.48
536.826	-2.02
537.279	0.17
537.733	-3.52
538.187	-9.33
538.64	-11.93
539.094	-7.42
539.548	-7.23
540.001	-12.93
540.455	-8.63
540.908	2.67
541.362	-4.02
541.815	-6.23
542.269	-1.13
542.722	-4.83
543.175	-8.73
543.629	-11.03
544.082	-3.33
544.536	-4.12
544.989	-7.42
545.442	-4.73
545.895	-0.73
546.349	-9.12
546.802	-7.73
547.255	-4.83
547.708	-6.02
548.161	-6.23
548.614	-2.23
549.067	0.38
549.52	-6.42
549.973	-2.23
550.426	-4.03
550.879	-11.03
551.332	-3.62
551.785	5.07
552.238	-4.93
552.691	-1.92
553.144	-0.93
553.596	-0.52
554.049	-8.33
554.502	-5.62
554.955	-3.33
555.407	-7.03
555.86	0.97
556.313	0.27
556.765	-3.93
557.218	-4.43
557.67	0.37
558.123	0.27
558.576	-11.93
559.028	0.18
559.48	-8.12
559.933	-1.62
560.385	-7.53
560.838	-6.83
561.29	-4.12
561.742	-3.23
562.195	-9.52
562.647	-6.82
563.099	1.67
563.551	-1.62
564.004	1.27
564.456	-2.12
564.908	-2.83
565.36	1.57
565.812	-2.33
566.264	-5.52
566.716	3.58
567.168	-3.33
567.62	-2.33
568.072	-0.02
568.524	-4.82
568.976	-1.63
569.428	-7.52
569.88	-3.53
570.332	-9.32
570.784	-3.73
571.235	-3.52
571.687	-3.92
572.139	0.27
572.59	-2.23
573.042	-1.03
573.494	-6.52
573.945	-0.03
574.397	-7.42
574.849	0.57
575.3	-0.23
575.752	-9.53
576.203	-2.53
576.655	1.37
577.106	-6.73
577.557	-7.12
578.009	1.08
578.46	-9.83
578.912	-5.73
579.363	-8.33
579.814	-1.23
580.265	-9.23
580.717	-7.03
581.168	-3.93
581.619	-2.32
582.07	-1.02
582.521	-6.83
582.972	-10.23
583.423	-4.83
583.875	-3.83
584.326	-8.13
584.777	-5.52
585.227	2.47
585.678	-8.03
586.129	-6.73
586.58	1.58
587.031	-1.23
587.482	-1.13
587.933	-2.42
588.384	-5.73
588.834	-8.23
589.285	-7.33
589.736	-3.03
590.186	-6.93
590.637	-3.73
591.088	0.68
591.538	-3.83
591.989	-0.02
592.439	-1.12
592.89	-4.43
593.34	-3.53
593.791	-5.03
594.241	-3.93
594.692	-3.12
595.142	-4.23
595.593	-4.62
596.043	-3.23
596.493	-4.73
596.943	-7.12
597.394	-0.42
597.844	-3.83
598.294	-7.73
598.744	-0.43
599.195	-3.12
599.645	-4.42
600.095	-9.93
600.545	1.38
600.995	-4.12
601.445	0.67
601.895	-7.73
602.345	-10.42
602.795	-3.73
603.245	-5.73
603.695	-6.02
604.145	-6.52
604.594	-7.12
605.044	-6.23
605.494	-6.33
605.944	-10.62
606.393	-1.62
606.843	-3.03
607.293	5.08
607.743	-1.83
608.192	-7.23
608.642	-0.83
609.091	-4.52
609.541	2.57
609.99	-5.23
610.44	2.38
610.889	-4.32
611.339	-2.43
611.788	-9.02
612.238	-5.62
612.687	7.57
613.136	-1.73
613.586	2.67
614.035	-6.12
614.484	-10.03
614.933	-13.03
615.383	-1.33
615.832	1.38
616.281	-4.42
616.73	-0.02
617.179	-4.52
617.628	3.07
618.077	-3.33
618.526	-5.93
618.975	-4.62
619.424	-0.63
619.873	-10.42
620.322	4.27
620.771	-5.73
621.22	-0.13
621.669	-9.73
622.118	-4.93
622.567	2.08
623.015	-13.33
623.464	-4.83
623.913	-0.93
624.361	-5.43
624.81	-3.12
625.259	-9.23
625.707	2.27
626.156	-4.73
626.604	-2.53
627.053	-9.03
627.501	-8.23
627.95	-3.62
628.398	-7.23
628.847	-8.62
629.295	-9.52
629.744	-7.73
630.192	2.67
630.64	-2.53
631.089	-8.83
631.537	-2.02
631.985	-2.73
632.433	3.38
632.881	-4.73
633.33	-3.33
633.778	-6.23
634.226	-10.52
634.674	0.77
635.122	-6.83
635.57	-1.73
636.018	-6.03
636.466	3.67
636.914	-5.23
637.362	0.18
637.81	2.77
638.258	-2.73
638.705	-5.33
639.153	-0.33
639.601	-10.73
640.049	-11.53
640.497	-3.62
640.944	5.17
641.392	-7.62
641.84	-2.02
642.287	-9.73
642.735	-9.93
643.182	-1.92
643.63	-5.53
644.078	-10.23
644.525	-3.63
644.973	-5.73
645.42	-5.02
645.867	-9.62
646.315	0.27
646.762	-7.82
647.21	-3.23
647.657	-8.33
648.104	1.27
648.551	-3.62
648.999	-5.23
649.446	-5.23
649.893	-10.02
650.34	-2.12
650.787	-9.62
651.234	0.67
651.682	-8.12
652.129	-3.62
652.576	-5.83
653.023	4.38
653.47	1.27
653.917	-7.13
654.363	4.08
654.81	-7.02
655.257	-8.23
655.704	-5.82
656.151	-6.83
656.598	-8.03
657.044	-5.53
657.491	0.57
657.938	-13.52
658.385	-0.62
658.831	-0.02
659.278	6.88
659.724	-7.73
660.171	-0.03
660.618	5.67
661.064	2.68
661.511	1.17
661.957	-5.02
662.404	-5.23
662.85	2.08
663.296	-2.33
663.743	-5.53
664.189	-1.83
664.635	-3.53
665.082	-7.43
665.528	-5.73
665.974	-6.03
666.42	-3.73
666.867	-1.93
667.313	-5.92
667.759	-4.62
668.205	-1.52
668.651	-0.52
669.097	-1.83
669.543	-9.23
669.989	-10.12
670.435	-0.62
670.881	-6.52
671.327	-4.62
671.773	-7.43
672.219	-1.93
672.665	0.27
673.11	-10.33
673.556	-6.73
674.002	-5.02
674.448	-8.23
674.893	-2.42
675.339	-2.62
675.785	-5.33
676.23	-2.12
676.676	-6.02
677.122	-4.83
677.567	-1.83
678.013	-2.33
678.458	-8.02
678.904	-2.32
679.349	-8.33
679.794	0.88
680.24	-5.02
680.685	-6.03
681.131	-3.73
681.576	2.07
682.021	1.17
682.466	-6.43
682.912	-10.43
683.357	-13.12
683.802	0.08
684.247	2.17
684.692	-0.83
685.137	-9.73
685.583	6.27
686.028	-6.23
686.473	-0.23
686.918	-9.33
687.363	2.27
687.807	-4.83
688.252	-4.12
688.697	5.17
689.142	-4.12
689.587	-6.93
690.032	-11.33
690.477	-6.62
690.921	-7.43
691.366	0.27
691.811	-9.43
692.255	1.27
692.7	1.58
693.145	-4.32
693.589	-3.62
694.034	-3.33
694.478	-3.62
694.923	2.88
695.367	-2.53
695.812	-5.43
696.256	-1.43
696.701	-7.43
697.145	0.98
697.59	-3.83
698.034	-5.13
698.478	-0.32
698.922	-6.42
699.367	-2.33
699.811	-0.62
700.255	-5.62
700.699	-2.42
701.143	-7.73
701.588	-6.12
702.032	-3.23
702.476	-6.02
702.92	-2.32
703.364	-1.73
703.808	-2.53
704.252	1.38
704.696	-5.23
705.14	-3.42
705.584	-6.23
706.027	-1.43
706.471	-4.93
706.915	-3.23
707.359	-2.12
707.803	-10.93
708.246	-8.12
708.69	4.67
709.134	5.17
709.577	-1.23
710.021	4.27
710.465	-7.12
710.908	-3.23
711.352	-4.12
711.795	-4.73
712.239	0.27
712.682	-8.33
713.126	-0.33
713.569	-5.12
714.012	-4.62
714.456	-6.12
714.899	-5.83
715.342	-7.42
715.786	-12.62
716.229	-0.12
716.672	8.47
717.115	1.08
717.558	-5.82
718.002	-0.83
718.445	-5.33
718.888	1.27
719.331	-7.73
719.774	-3.43
720.217	2.47
720.66	-2.33
721.103	-5.02
721.546	-3.32
721.989	-2.73
722.432	-15.52
722.874	-4.33
723.317	-10.73
723.76	-15.12
724.203	-4.43
724.645	1.98
725.088	-0.73
725.531	-11.33
725.974	-14.23
726.416	-6.53
726.859	0.07
727.301	-7.83
727.744	0.58
728.187	-6.32
728.629	-6.93
729.071	-4.33
729.514	-5.12
729.956	-1.12
730.399	-3.73
730.841	-1.83
731.283	-8.02
731.726	-5.32
732.168	-4.23
732.61	-6.53
733.053	-1.02
733.495	-5.92
733.937	-6.32
734.379	-5.03
734.821	-7.12
735.263	-8.23
735.705	-3.12
736.148	-7.33
736.59	2.97
737.032	-7.63
737.474	-2.03
737.916	-4.62
738.357	-3.62
738.799	-4.93
739.241	-6.12
739.683	-2.43
740.125	-6.73
740.567	-8.23
741.008	3.67
741.45	8.38
741.892	4.58
742.334	-1.42
742.775	-10.43
743.217	-9.43
743.658	-9.12
744.1	-2.73
744.542	-11.52
744.983	-3.73
745.425	-8.33
745.866	0.47
746.307	3.27
746.749	-3.42
747.19	-3.32
747.632	-0.92
748.073	-14.02
748.514	3.27
748.956	-9.83
749.397	-3.93
749.838	1.27
750.279	-12.93
750.72	-3.13
751.162	-2.33
751.603	-10.02
752.044	-2.62
752.485	-11.42
752.926	-7.52
753.367	-4.63
753.808	-1.73
754.249	-4.73
754.69	-0.83
755.131	-3.02
755.572	-8.12
756.013	-5.62
756.453	-4.52
756.894	-4.62
757.335	-3.92
757.776	-3.12
758.216	-7.53
758.657	-6.02
759.098	-13.12
759.538	-7.02
759.979	-8.83
760.42	-10.42
760.86	-14.23
761.301	-9.92
761.741	-1.73
762.182	-6.83
762.622	-5.73
763.063	-5.73
763.503	-3.23
763.943	-8.62
764.384	-1.33
764.824	0.68
765.264	-5.62
765.705	-5.12
766.145	-11.93
766.585	-7.62
767.025	-10.73
767.465	-9.53
767.906	0.27
768.346	3.98
768.786	-5.83
769.226	-0.92
769.666	6.27
770.106	-6.33
770.546	-2.62
770.986	-12.02
771.426	-11.23
771.866	-6.92
772.306	-5.62
772.745	-8.62
773.185	-7.12
773.625	-0.93
774.065	-5.83
774.505	1.87
774.944	-5.52
775.384	-2.83
775.824	-7.82
776.263	-4.33
776.703	-12.93
777.142	-6.33
777.582	-0.83
778.021	-3.02
778.461	-2.02
778.9	-1.23
779.34	3.18
779.779	-5.23
780.219	-11.42
780.658	-13.12
781.097	-4.52
781.537	0.98
781.976	-7.73
782.415	-7.53
782.855	-2.62
783.294	-7.52
783.733	-6.43
784.172	0.77
784.611	-10.93
785.05	-2.23
785.489	-3.42
785.928	2.38
786.367	-1.02
786.806	-11.03
787.245	-3.53
787.684	-10.62
788.123	-1.83
788.562	-7.52
789.001	-11.02
789.44	-7.62
789.879	0.07
790.317	-7.33
790.756	0.58
791.195	-3.42
791.634	-6.32
792.072	7.77
792.511	-4.02
792.95	-0.52
793.388	-5.12
793.827	2.07
794.265	-8.43
794.704	-6.23
795.142	-0.32
795.581	1.07
796.019	0.57
796.458	-2.42
796.896	-6.73
797.334	-6.02
797.773	-8.62
798.211	-0.12
798.649	-3.63
799.087	-7.92
799.526	-7.93
799.964	-0.73
800.402	4.07
800.84	2.17
801.278	-14.33
801.716	-6.43
802.154	-2.83
802.592	4.48
803.03	-5.32
803.468	-14.62
803.906	1.48
804.344	-1.52
804.782	-2.62
805.22	-4.93
805.658	-5.23
806.096	1.88
806.533	1.77
806.971	-8.63
807.409	-6.93
807.847	-11.12
808.284	-6.43
808.722	-3.53
809.16	-6.33
809.597	2.88
810.035	-10.53
810.472	-5.62
810.91	-0.73
811.347	1.48
811.785	-2.42
812.222	-4.23
812.66	-2.42
813.097	-7.83
813.535	-6.73
813.972	-0.23
814.409	-4.93
814.846	-10.12
815.284	4.67
815.721	-2.83
816.158	-5.42
816.595	0.27
817.032	-5.03
817.47	4.27
817.907	5.08
818.344	-6.13
818.781	-5.12
819.218	-2.42
819.655	-9.32
820.092	1.77
820.529	-9.13
820.966	-3.52
821.403	-4.23
821.839	-2.73
822.276	-2.33
822.713	6.97
823.15	-7.32
823.587	-7.62
824.023	-6.62
824.46	-4.02
824.897	-0.92
825.333	-6.73
825.77	0.07
826.206	-1.83
826.643	-2.53
827.08	-4.02
827.516	-4.52
827.953	0.88
828.389	3.67
828.825	-0.23
829.262	-2.23
829.698	-3.93
830.135	1.08
830.571	-8.13
831.007	2.98
831.443	-8.33
831.88	-5.12
832.316	-6.83
832.752	-4.83
833.188	2.27
833.624	-5.52
834.06	-3.83
834.497	1.77
834.933	5.38
835.369	2.17
835.805	-5.33
836.241	-3.53
836.677	-3.82
837.112	-8.73
837.548	-10.12
837.984	-3.02
838.42	-14.73
838.856	-11.73
839.292	-5.02
839.727	-2.23
840.163	-3.93
840.599	-3.12
841.034	-0.23
841.47	0.77
841.906	1.68
842.341	-0.62
842.777	-2.73
843.212	-7.52
843.648	-4.43
844.083	-1.93
844.519	-9.52
844.954	-5.82
845.39	-11.12
845.825	-7.52
846.261	1.98
846.696	0.98
847.131	-7.73
847.566	5.47
848.002	-4.92
848.437	-7.92
848.872	-3.62
849.307	-4.92
849.742	-3.52
850.177	0.48
850.613	8.77
851.048	-7.52
851.483	-5.52
851.918	-8.83
852.353	-8.13
852.788	-7.93
853.223	-0.53
853.657	4.87
854.092	-2.52
854.527	-5.62
854.962	-2.93
855.397	-3.52
855.832	1.38
856.266	-5.23
856.701	-0.92
857.136	-6.73
857.57	-2.92
858.005	-2.73
858.44	4.88
858.874	-4.62
859.309	2.08
859.743	-13.43
860.178	-1.53
860.612	-10.43
861.047	-4.03
861.481	-8.23
861.915	-7.02
862.35	0.17
862.784	-9.53
863.218	3.57
863.653	-4.73
864.087	3.88
864.521	5.67
864.955	-7.52
865.39	-7.53
865.824	-5.82
866.258	-4.02
866.692	3.27
867.126	-2.33
867.56	-2.83
867.994	-3.53
868.428	-4.62
868.862	1.98
869.296	4.58
869.73	2.97
870.164	-3.12
870.598	-10.32
871.031	-1.73
871.465	-7.53
871.899	-1.02
872.333	-2.62
872.766	-2.92
873.2	-1.43
873.634	1.48
874.067	-3.43
874.501	-8.53
874.935	5.77
875.368	-6.93
875.802	-3.52
876.235	-7.23
876.669	-5.23
877.102	-3.02
877.535	-3.23
877.969	-2.33
878.402	-6.03
878.836	-8.93
879.269	-5.73
879.702	-8.73
880.135	-6.43
880.569	-9.23
881.002	-4.82
881.435	-8.12
881.868	-9.02
882.301	-0.83
882.734	-5.83
883.167	-1.23
883.601	-6.73
884.034	-5.43
884.467	-6.02
884.899	-6.43
885.332	-2.62
885.765	-7.92
886.198	-1.53
886.631	0.47
887.064	-3.52
887.497	-0.03
887.929	7.47
888.362	-3.43
888.795	-8.23
889.228	1.48
889.66	-0.03
890.093	-4.73
890.526	-5.33
890.958	-8.42
891.391	-0.42
891.823	1.27
892.256	-2.12
892.688	-5.62
893.121	-1.73
893.553	-3.93
893.985	-1.03
894.418	4.27
894.85	-9.02
895.282	3.97
895.715	-2.62
896.147	0.98
896.579	-5.53
897.011	-1.23
897.444	0.27
897.876	-7.32
898.308	-5.43
898.74	-6.82
899.172	-3.62
899.604	2.27
900.036	2.77
900.468	-10.23
900.9	0.27
901.332	-2.43
901.764	-10.02
902.196	-4.62
902.628	1.77
903.06	-8.13
903.491	-7.83
903.923	-6.23
904.355	-5.73
904.787	-1.23
905.218	-7.02
905.65	-3.43
906.082	-7.23
906.513	-8.03
906.945	-5.43
907.376	-4.73
907.808	-4.43
908.239	-3.52
908.671	-6.23
909.102	-3.52
909.534	-3.92
909.965	2.67
910.397	-0.93
910.828	-1.33
911.259	2.08
911.691	-6.23
912.122	-6.12
912.553	-6.73
912.984	-0.92
913.415	0.18
913.847	1.67
914.278	-8.93
914.709	-13.73
915.14	-1.02
915.571	-2.52
916.002	-2.12
916.433	3.88
916.864	-2.33
917.295	-1.93
917.726	-4.12
918.157	-4.63
918.587	1.27
919.018	-6.82
919.449	-1.42
919.88	1.57
920.311	-2.83
920.741	-8.23
921.172	-8.12
921.603	-10.13
922.033	-7.62
922.464	-1.73
922.895	-7.63
923.325	1.38
923.756	-2.53
924.186	-1.52
924.617	1.98
925.047	-6.23
925.478	-12.52
925.908	-3.23
926.338	-6.73
926.769	-0.52
927.199	1.18
927.629	-7.73
928.06	-5.73
928.49	0.18
928.92	7.57
929.35	-1.52
929.78	-0.03
930.21	-7.63
930.641	-4.93
931.071	-2.02
931.501	-5.02
931.931	-1.42
932.361	1.08
932.791	-4.52
933.221	-7.92
933.651	-8.12
934.08	-3.23
934.51	7.27
934.94	-1.73
935.37	3.77
935.8	-0.12
936.229	-1.73
936.659	1.47
937.089	-10.52
937.519	0.98
937.948	1.07
938.378	-3.42
938.807	-10.83
939.237	-3.42
939.666	-1.23
940.096	-12.23
940.525	-2.53
940.955	-4.23
941.384	-0.73
941.814	-0.62
942.243	-3.83
942.672	-2.73
943.102	-8.32
943.531	-2.83
943.96	-3.83
944.39	1.87
944.819	-4.63
945.248	-5.52
945.677	-6.23
946.106	4.38
946.535	1.77
946.964	-5.02
947.393	-0.23
947.822	-2.62
948.251	-7.03
948.68	0.88
949.109	1.67
949.538	1.68
949.967	0.57
950.396	-4.62
950.825	-3.13
951.254	-4.42
951.682	-8.83
952.111	-1.42
952.54	-1.02
952.969	-4.83
953.397	-12.53
953.826	-4.03
954.254	-10.02
954.683	-4.93
955.112	-7.42
955.54	-2.32
955.969	3.58
956.397	-2.23
956.826	-5.62
957.254	-3.82
957.682	-0.73
958.111	-0.83
958.539	-6.02
958.967	1.08
959.396	-4.53
959.824	-1.32
960.252	-3.62
960.68	-5.33
961.109	-8.93
961.537	-7.92
961.965	-2.62
962.393	4.27
962.821	-3.02
963.249	1.57
963.677	-3.73
964.105	-12.03
964.533	-2.32
964.961	-3.73
965.389	-4.42
965.817	-3.83
966.245	0.17
966.672	-4.02
967.1	-6.52
967.528	-2.53
967.956	-7.62
968.383	-0.73
968.811	-7.83
969.239	-2.53
969.666	-11.33
970.094	2.38
970.522	-2.12
970.949	-5.83
971.377	-8.23
971.804	-11.42
972.232	-10.42
972.659	-4.02
973.087	-6.83
973.514	-4.23
973.941	-1.93
974.369	-2.03
974.796	-4.42
975.223	4.57
975.651	-4.73
976.078	2.48
976.505	-1.73
976.932	4.88
977.359	-7.62
977.786	1.17
978.214	-8.53
978.641	-5.62
979.068	-6.03
979.495	-9.62
979.922	-3.93
980.349	-5.12
980.776	0.77
981.202	-6.62
981.629	3.88
982.056	-1.13
982.483	-7.02
982.91	-2.02
983.337	-9.33
983.763	-0.93
984.19	-10.62
984.617	-1.92
985.043	-13.02
985.47	-2.02
985.897	-5.52
986.323	-11.12
986.75	0.68
987.176	-10.23
987.603	-5.13
988.029	-6.13
988.456	0.77
988.882	-1.52
989.308	-2.53
989.735	-2.83
990.161	0.27
990.587	-3.13
991.014	-7.52
991.44	9.27
991.866	-4.23
992.292	-4.23
992.719	-5.33
993.145	1.67
993.571	-9.92
993.997	-2.93
994.423	-6.93
994.849	-5.73
995.275	2.38
995.701	-3.23
996.127	-0.33
996.553	-1.12
996.979	0.88
997.405	-4.32
997.83	-6.62
998.256	-12.13
998.682	-9.82
999.108	-3.33
999.534	1.67
999.959	-1.02
1000.385	-8.23
1000.811	0.07
1001.236	-8.03
1001.662	-5.43
1002.087	-11.73
1002.513	0.67
1002.938	-2.02
1003.364	-3.82
1003.789	-2.92
1004.215	1.58
1004.64	-3.33
1005.066	-4.92
1005.491	1.88
1005.916	-5.03
1006.342	-5.82
1006.767	-11.83
1007.192	6.77
1007.617	-5.62
1008.042	-7.02
1008.468	-8.93
1008.893	-7.32
1009.318	-5.62
1009.743	-2.53
1010.168	-1.03
1010.593	-6.12
1011.018	-14.73
1011.443	-6.02
1011.868	0.58
1012.293	-7.23
1012.718	-8.52
1013.143	2.37
1013.567	0.17
1013.992	-6.52
1014.417	-17.53
1014.842	3.17
1015.267	-3.62
1015.691	-6.02
1016.116	4.67
1016.541	-4.33
1016.965	3.67
1017.39	4.47
1017.814	-2.12
1018.239	-5.03
1018.663	-5.83
1019.088	-8.93
1019.512	-6.93
1019.937	-3.73
1020.361	-7.23
1020.785	-8.83
1021.21	-7.73
1021.634	-1.42
1022.058	-5.23
1022.483	2.07
1022.907	-4.33
1023.331	-5.82
1023.755	-4.62
1024.179	-7.12
1024.604	-2.02
1025.028	-6.53
1025.452	-6.93
1025.876	-1.93
1026.3	0.97
1026.724	-5.93
1027.148	-2.12
1027.572	-10.23
1027.996	-1.43
1028.42	-4.73
1028.843	-3.33
1029.267	-2.33
1029.691	-9.73
1030.115	-5.83
1030.539	-7.33
1030.962	-8.12
1031.386	-9.42
1031.81	-0.12
1032.233	0.38
1032.657	-3.73
1033.08	-0.73
1033.504	-5.43
1033.927	-6.52
1034.351	-0.23
1034.774	-9.23
1035.198	-3.93
1035.621	-5.12
1036.045	-4.62
1036.468	-4.03
1036.891	-8.33
1037.315	-12.63
1037.738	-8.62
1038.161	-3.23
1038.584	-4.52
1039.008	-9.33
1039.431	1.57
1039.854	0.07
1040.277	-8.62
1040.7	-17.42
1041.123	0.47
1041.546	-1.62
1041.969	-1.02
1042.392	-5.43
1042.815	-2.83
1043.238	3.47
1043.661	2.47
1044.084	-0.62
1044.507	-3.02
1044.93	-8.02
1045.352	-3.62
1045.775	-3.03
1046.198	-3.83
1046.621	-5.42
1047.043	1.68
1047.466	2.38
1047.889	-8.53
1048.311	-2.83
1048.734	-6.43
1049.156	-5.12
1049.579	-2.93
1050.001	-1.83
1050.424	-4.33
1050.846	-6.62
1051.269	-4.32
1051.691	-3.32
1052.113	-3.33
1052.536	-2.92
1052.958	-0.83
1053.38	-4.62
1053.802	-11.03
1054.225	1.07
1054.647	-6.73
1055.069	-9.83
1055.491	3.17
1055.913	-9.83
1056.335	-6.33
1056.757	2.58
1057.179	-5.03
1057.601	-5.12
1058.023	-1.82
1058.445	-4.93
1058.867	-5.62
1059.289	-1.83
1059.711	-4.32
1060.133	-3.03
1060.555	0.27
1060.976	-6.62
1061.398	-5.73
1061.82	-10.83
1062.241	-0.93
1062.663	-10.43
1063.085	-2.93
1063.506	0.77
1063.928	-5.73
1064.35	-0.33
1064.771	-10.83
1065.193	-1.63
1065.614	-10.73
1066.035	-2.92
1066.457	-6.93
1066.878	-0.12
1067.3	-5.12
1067.721	-3.43
1068.142	-6.73
1068.564	-4.93
1068.985	-0.62
1069.406	-6.73
1069.827	-3.43
1070.248	2.27
1070.67	-8.43
1071.091	-9.52
1071.512	2.87
1071.933	-10.03
1072.354	-10.42
1072.775	-4.62
1073.196	-11.02
1073.617	-3.73
1074.038	-8.62
1074.459	-1.82
1074.88	-6.83
1075.3	1.07
1075.721	-5.33
1076.142	-6.32
1076.563	-2.43
1076.983	-12.43
1077.404	-6.12
1077.825	-13.42
1078.246	0.38
1078.666	-9.23
1079.087	-2.82
1079.507	-12.13
1079.928	1.07
1080.348	-2.62
1080.769	-5.73
1081.189	8.68
1081.61	0.27
1082.03	-8.12
1082.451	-9.12
1082.871	-8.92
1083.291	-4.43
1083.711	0.08
1084.132	-2.92
1084.552	-2.53
1084.972	-0.02
1085.392	-14.63
1085.813	-11.43
1086.233	-5.43
1086.653	0.27
1087.073	0.48
1087.493	-8.12
1087.913	-10.63
1088.333	-6.03
1088.753	-3.83
1089.173	0.87
1089.593	0.88
1090.013	-2.03
1090.433	-1.12
1090.852	-2.73
1091.272	-5.33
1091.692	-2.73
1092.112	-5.62
1092.531	-10.23
1092.951	-16.42
1093.371	-0.73
1093.79	-2.82
1094.21	-6.12
1094.63	-11.33
1095.049	-4.52
1095.469	-3.52
1095.888	-3.62
1096.308	7.07
1096.727	3.77
1097.146	-2.33
1097.566	1.08
1097.985	-3.02
1098.405	2.38
1098.824	-11.43
1099.243	-5.23
1099.662	-7.33
1100.082	-5.52
1100.501	-6.62
1100.92	-5.03
1101.339	-4.43
1101.758	-4.32
