Data from 20170802-ORNL-NYSim-Air_HRD10391_10-36-01-563.txt Node
Date: Wed Aug 02 10:36:01 EDT 2017
User: Ender
Spectrometer: HR+D1039
Trigger mode: 0
Integration Time (sec): 3.750000E-3
Scans to average: 1
Electric dark correction enabled: true
Nonlinearity correction enabled: false
Boxcar width: 0
XAxis mode: Wavelengths
Number of Pixels in Spectrum: 2048
>>>>>Begin Spectral Data<<<<<
187.836	8
188.309	8
188.782	8
189.255	-1
189.728	1
190.201	-4
190.674	-1
191.147	3
191.619	3
192.092	3
192.565	1
193.038	4
193.511	-8
193.984	4
194.456	12
194.929	-10
195.402	-18
195.874	3
196.347	13
196.82	-5
197.292	14
197.765	32
198.237	34
198.71	43
199.182	54
199.655	60
200.127	69
200.6	54
201.072	56
201.544	71
202.017	71
202.489	55
202.961	63
203.433	65
203.906	95
204.378	77
204.85	78
205.322	80
205.794	96
206.266	86
206.739	80
207.211	95
207.683	75
208.155	88
208.627	96
209.099	103
209.57	99
210.042	75
210.514	93
210.986	95
211.458	97
211.93	92
212.402	81
212.873	94
213.345	77
213.817	83
214.288	75
214.76	91
215.232	72
215.703	90
216.175	76
216.646	65
217.118	73
217.589	76
218.061	81
218.532	82
219.004	98
219.475	73
219.946	93
220.418	81
220.889	76
221.36	77
221.832	90
222.303	91
222.774	79
223.245	82
223.717	98
224.188	88
224.659	75
225.13	81
225.601	80
226.072	79
226.543	82
227.014	83
227.485	87
227.956	88
228.427	94
228.898	85
229.369	94
229.839	96
230.31	78
230.781	74
231.252	80
231.722	71
232.193	78
232.664	82
233.135	76
233.605	88
234.076	87
234.546	102
235.017	86
235.487	98
235.958	92
236.428	74
236.899	94
237.369	87
237.84	99
238.31	84
238.78	92
239.251	95
239.721	87
240.191	84
240.662	87
241.132	79
241.602	99
242.072	86
242.542	77
243.013	99
243.483	102
243.953	92
244.423	89
244.893	107
245.363	101
245.833	104
246.303	106
246.773	96
247.243	90
247.712	113
248.182	98
248.652	88
249.122	97
249.592	96
250.061	90
250.531	96
251.001	96
251.471	113
251.94	100
252.41	96
252.879	100
253.349	130
253.818	99
254.288	82
254.757	98
255.227	100
255.696	110
256.166	106
256.635	107
257.105	101
257.574	110
258.043	108
258.513	106
258.982	121
259.451	115
259.92	92
260.389	113
260.859	104
261.328	104
261.797	102
262.266	101
262.735	100
263.204	106
263.673	91
264.142	100
264.611	97
265.08	112
265.549	110
266.018	117
266.487	97
266.955	97
267.424	116
267.893	100
268.362	81
268.83	114
269.299	114
269.768	114
270.236	122
270.705	118
271.174	110
271.642	111
272.111	105
272.579	104
273.048	117
273.516	100
273.985	122
274.453	120
274.922	112
275.39	109
275.858	106
276.327	128
276.795	98
277.263	130
277.731	104
278.2	105
278.668	106
279.136	121
279.604	126
280.072	119
280.54	106
281.008	115
281.477	120
281.945	114
282.413	126
282.881	129
283.348	119
283.816	116
284.284	119
284.752	134
285.22	123
285.688	144
286.156	121
286.623	120
287.091	132
287.559	121
288.026	131
288.494	132
288.962	124
289.429	128
289.897	126
290.364	144
290.832	121
291.3	127
291.767	137
292.234	156
292.702	129
293.169	137
293.637	133
294.104	142
294.571	130
295.039	112
295.506	154
295.973	133
296.44	122
296.908	128
297.375	135
297.842	156
298.309	139
298.776	146
299.243	131
299.71	134
300.177	154
300.644	155
301.111	138
301.578	152
302.045	141
302.512	136
302.979	154
303.446	140
303.913	151
304.379	132
304.846	160
305.313	154
305.78	168
306.246	159
306.713	151
307.18	149
307.646	154
308.113	159
308.579	171
309.046	166
309.512	172
309.979	156
310.445	176
310.912	155
311.378	181
311.845	170
312.311	173
312.777	181
313.244	167
313.71	176
314.176	170
314.642	172
315.109	176
315.575	177
316.041	161
316.507	179
316.973	181
317.439	160
317.905	172
318.371	173
318.837	179
319.303	187
319.769	187
320.235	175
320.701	178
321.167	176
321.633	182
322.099	208
322.564	182
323.03	205
323.496	176
323.962	192
324.427	183
324.893	177
325.359	195
325.824	192
326.29	196
326.755	182
327.221	200
327.686	206
328.152	216
328.617	186
329.083	202
329.548	216
330.014	208
330.479	219
330.944	236
331.41	198
331.875	209
332.34	174
332.805	211
333.271	216
333.736	207
334.201	208
334.666	213
335.131	218
335.596	214
336.061	220
336.526	217
336.991	209
337.456	204
337.921	223
338.386	208
338.851	213
339.316	223
339.781	219
340.246	212
340.711	232
341.175	237
341.64	234
342.105	235
342.569	215
343.034	232
343.499	230
343.963	223
344.428	230
344.893	227
345.357	236
345.822	246
346.286	241
346.751	247
347.215	267
347.679	260
348.144	274
348.608	261
349.073	275
349.537	274
350.001	288
350.465	274
350.93	294
351.394	287
351.858	273
352.322	288
352.786	306
353.25	309
353.715	284
354.179	285
354.643	303
355.107	306
355.571	309
356.035	304
356.498	283
356.962	306
357.426	305
357.89	274
358.354	286
358.818	292
359.281	309
359.745	294
360.209	299
360.673	300
361.136	290
361.6	284
362.064	299
362.527	309
362.991	316
363.454	320
363.918	313
364.381	308
364.845	328
365.308	304
365.772	318
366.235	304
366.698	313
367.162	310
367.625	324
368.088	317
368.552	321
369.015	314
369.478	334
369.941	320
370.404	340
370.867	335
371.331	341
371.794	324
372.257	354
372.72	353
373.183	353
373.646	304
374.109	348
374.572	358
375.035	328
375.497	350
375.96	331
376.423	360
376.886	346
377.349	372
377.811	390
378.274	370
378.737	385
379.199	376
379.662	378
380.125	394
380.587	384
381.05	384
381.512	377
381.975	372
382.437	397
382.9	421
383.362	363
383.825	415
384.287	390
384.75	408
385.212	414
385.674	396
386.136	403
386.599	391
387.061	428
387.523	408
387.985	417
388.447	402
388.91	390
389.372	432
389.834	406
390.296	410
390.758	402
391.22	416
391.682	405
392.144	436
392.606	418
393.068	434
393.529	452
393.991	454
394.453	447
394.915	429
395.377	416
395.838	427
396.3	440
396.762	448
397.224	441
397.685	440
398.147	398
398.608	457
399.07	448
399.531	457
399.993	478
400.454	455
400.916	472
401.377	449
401.839	493
402.3	502
402.762	479
403.223	530
403.684	533
404.145	493
404.607	494
405.068	515
405.529	496
405.99	488
406.451	518
406.913	510
407.374	486
407.835	487
408.296	512
408.757	514
409.218	522
409.679	528
410.14	529
410.601	549
411.062	559
411.522	556
411.983	561
412.444	575
412.905	552
413.366	610
413.826	634
414.287	703
414.748	870
415.208	880
415.669	742
416.13	653
416.59	648
417.051	698
417.511	695
417.972	758
418.432	811
418.893	936
419.353	874
419.814	666
420.274	623
420.734	604
421.195	623
421.655	597
422.115	648
422.576	613
423.036	609
423.496	637
423.956	680
424.416	702
424.876	790
425.336	790
425.797	761
426.257	776
426.717	709
427.177	643
427.637	623
428.097	650
428.556	688
429.016	705
429.476	704
429.936	644
430.396	684
430.856	648
431.315	692
431.775	717
432.235	764
432.694	778
433.154	736
433.614	698
434.073	699
434.533	651
434.993	614
435.452	638
435.912	654
436.371	643
436.83	658
437.29	635
437.749	651
438.209	641
438.668	682
439.127	678
439.587	695
440.046	658
440.505	681
440.964	677
441.424	730
441.883	748
442.342	671
442.801	688
443.26	649
443.719	666
444.178	704
444.637	709
445.096	717
445.555	684
446.014	714
446.473	693
446.932	692
447.391	705
447.849	719
448.308	701
448.767	720
449.226	738
449.685	738
450.143	778
450.602	752
451.061	739
451.519	726
451.978	716
452.436	748
452.895	733
453.353	751
453.812	726
454.27	738
454.729	722
455.187	759
455.646	730
456.104	700
456.562	726
457.021	738
457.479	740
457.937	747
458.395	730
458.854	767
459.312	755
459.77	770
460.228	752
460.686	789
461.144	770
461.602	811
462.06	776
462.518	779
462.976	788
463.434	782
463.892	782
464.35	797
464.808	797
465.266	831
465.724	810
466.181	831
466.639	838
467.097	876
467.555	880
468.012	906
468.47	892
468.928	950
469.385	937
469.843	983
470.3	932
470.758	961
471.215	952
471.673	980
472.13	973
472.588	990
473.045	1024
473.503	1044
473.96	1088
474.417	1064
474.875	1070
475.332	1108
475.789	1134
476.246	1160
476.704	1158
477.161	1210
477.618	1182
478.075	1182
478.532	1268
478.989	1283
479.446	1347
479.903	1314
480.36	1350
480.817	1324
481.274	1332
481.731	1371
482.188	1436
482.645	1468
483.102	1480
483.558	1505
484.015	1551
484.472	1528
484.929	1588
485.385	1524
485.842	1577
486.299	1556
486.755	1579
487.212	1548
487.668	1482
488.125	1480
488.582	1470
489.038	1508
489.494	1514
489.951	1449
490.407	1464
490.864	1529
491.32	1516
491.776	1516
492.233	1516
492.689	1516
493.145	1535
493.602	1492
494.058	1543
494.514	1568
494.97	1597
495.426	1564
495.882	1554
496.338	1613
496.794	1607
497.251	1640
497.707	1652
498.163	1654
498.618	1676
499.074	1626
499.53	1660
499.986	1663
500.442	1651
500.898	1646
501.354	1651
501.809	1701
502.265	1671
502.721	1674
503.177	1680
503.632	1688
504.088	1698
504.543	1708
504.999	1759
505.455	1724
505.91	1723
506.366	1725
506.821	1731
507.277	1721
507.732	1757
508.187	1677
508.643	1772
509.098	1763
509.553	1770
510.009	1807
510.464	1842
510.919	1858
511.375	1835
511.83	1880
512.285	1901
512.74	1977
513.195	1981
513.65	2002
514.105	2055
514.56	2097
515.015	2093
515.47	2130
515.925	2087
516.38	2091
516.835	2044
517.29	2080
517.745	2115
518.2	2062
518.655	2010
519.109	1951
519.564	1962
520.019	1953
520.474	1963
520.928	1915
521.383	1889
521.838	1847
522.292	1902
522.747	1840
523.201	1852
523.656	1850
524.11	1838
524.565	1835
525.019	1859
525.474	1801
525.928	1811
526.382	1838
526.837	1819
527.291	1808
527.745	1794
528.2	1834
528.654	1820
529.108	1784
529.562	1770
530.016	1780
530.47	1828
530.925	1826
531.379	1803
531.833	1798
532.287	1799
532.741	1814
533.195	1789
533.649	1812
534.103	1833
534.556	1828
535.01	1789
535.464	1816
535.918	1816
536.372	1840
536.826	1809
537.279	1809
537.733	1820
538.187	1832
538.64	1830
539.094	1826
539.548	1844
540.001	1865
540.455	1860
540.908	1844
541.362	1935
541.815	1896
542.269	1926
542.722	1918
543.175	1970
543.629	2007
544.082	2005
544.536	2044
544.989	2012
545.442	2069
545.895	2042
546.349	2065
546.802	2010
547.255	2003
547.708	2108
548.161	2100
548.614	2070
549.067	2071
549.52	2082
549.973	2068
550.426	2035
550.879	1996
551.332	2035
551.785	2037
552.238	2081
552.691	2111
553.144	2134
553.596	2138
554.049	2179
554.502	2232
554.955	2246
555.407	2262
555.86	2249
556.313	2201
556.765	2231
557.218	2172
557.67	2156
558.123	2154
558.576	2156
559.028	2155
559.48	2160
559.933	2166
560.385	2076
560.838	2048
561.29	1964
561.742	1940
562.195	1915
562.647	1908
563.099	1874
563.551	1876
564.004	1891
564.456	1857
564.908	1856
565.36	1846
565.812	1777
566.264	1790
566.716	1731
567.168	1693
567.62	1698
568.072	1733
568.524	1708
568.976	1695
569.428	1625
569.88	1684
570.332	1655
570.784	1638
571.235	1691
571.687	1690
572.139	1738
572.59	1725
573.042	1689
573.494	1767
573.945	1714
574.397	1678
574.849	1656
575.3	1710
575.752	1607
576.203	1617
576.655	1582
577.106	1611
577.557	1588
578.009	1533
578.46	1558
578.912	1566
579.363	1566
579.814	1586
580.265	1602
580.717	1609
581.168	1609
581.619	1590
582.07	1602
582.521	1577
582.972	1578
583.423	1589
583.875	1626
584.326	1629
584.777	1653
585.227	1641
585.678	1690
586.129	1702
586.58	1737
587.031	1729
587.482	1791
587.933	1820
588.384	1884
588.834	1823
589.285	1777
589.736	1773
590.186	1811
590.637	1800
591.088	1782
591.538	1691
591.989	1638
592.439	1630
592.89	1638
593.34	1640
593.791	1601
594.241	1636
594.692	1602
595.142	1614
595.593	1588
596.043	1646
596.493	1603
596.943	1594
597.394	1684
597.844	1676
598.294	1727
598.744	1758
599.195	1860
599.645	1934
600.095	2072
600.545	2178
600.995	2226
601.445	2406
601.895	2510
602.345	2622
602.795	2598
603.245	2500
603.695	2336
604.145	2205
604.594	2099
605.044	1994
605.494	1844
605.944	1752
606.393	1665
606.843	1655
607.293	1671
607.743	1629
608.192	1667
608.642	1625
609.091	1669
609.541	1681
609.99	1687
610.44	1618
610.889	1628
611.339	1556
611.788	1580
612.238	1592
612.687	1598
613.136	1547
613.586	1598
614.035	1633
614.484	1634
614.933	1606
615.383	1560
615.832	1534
616.281	1520
616.73	1500
617.179	1445
617.628	1394
618.077	1412
618.526	1382
618.975	1383
619.424	1391
619.873	1399
620.322	1330
620.771	1348
621.22	1302
621.669	1316
622.118	1299
622.567	1260
623.015	1223
623.464	1256
623.913	1206
624.361	1205
624.81	1214
625.259	1238
625.707	1254
626.156	1236
626.604	1254
627.053	1236
627.501	1254
627.95	1274
628.398	1281
628.847	1296
629.295	1294
629.744	1247
630.192	1204
630.64	1195
631.089	1179
631.537	1142
631.985	1132
632.433	1142
632.881	1132
633.33	1140
633.778	1146
634.226	1137
634.674	1159
635.122	1156
635.57	1165
636.018	1211
636.466	1164
636.914	1172
637.362	1195
637.81	1219
638.258	1216
638.705	1224
639.153	1321
639.601	1323
640.049	1367
640.497	1387
640.944	1387
641.392	1351
641.84	1252
642.287	1176
642.735	1137
643.182	1108
643.63	1050
644.078	1062
644.525	1103
644.973	1130
645.42	1112
645.867	1120
646.315	1119
646.762	1104
647.21	1106
647.657	1088
648.104	1104
648.551	1075
648.999	1067
649.446	1051
649.893	1032
650.34	1050
650.787	1048
651.234	1129
651.682	1174
652.129	1264
652.576	1464
653.023	1712
653.47	1860
653.917	1957
654.363	1946
654.81	2047
655.257	2128
655.704	1832
656.151	1388
656.598	1243
657.044	1120
657.491	1066
657.938	1062
658.385	1043
658.831	1034
659.278	996
659.724	1023
660.171	991
660.618	980
661.064	954
661.511	973
661.957	1003
662.404	1008
662.85	991
663.296	978
663.743	973
664.189	954
664.635	995
665.082	983
665.528	1011
665.974	963
666.42	918
666.867	946
667.313	914
667.759	905
668.205	915
668.651	877
669.097	873
669.543	889
669.989	915
670.435	925
670.881	943
671.327	954
671.773	1026
672.219	1117
672.665	1182
673.11	1258
673.556	1276
674.002	1272
674.448	1377
674.893	1212
675.339	1027
675.785	932
676.23	891
676.676	838
677.122	843
677.567	824
678.013	775
678.458	780
678.904	781
679.349	799
679.794	748
680.24	782
680.685	760
681.131	758
681.576	776
682.021	782
682.466	756
682.912	792
683.357	812
683.802	829
684.247	959
684.692	1017
685.137	1103
685.583	1115
686.028	1149
686.473	1148
686.918	1013
687.363	901
687.807	843
688.252	823
688.697	769
689.142	768
689.587	725
690.032	757
690.477	762
690.921	857
691.366	878
691.811	894
692.255	954
692.7	1096
693.145	1423
693.589	2247
694.034	2939
694.478	3322
694.923	3150
695.367	3889
695.812	3417
696.256	1363
696.701	872
697.145	773
697.59	767
698.034	723
698.478	722
698.922	747
699.367	744
699.811	785
700.255	889
700.699	911
701.143	1016
701.588	1071
702.032	1098
702.476	1121
702.92	1180
703.364	1336
703.808	1990
704.252	2785
704.696	3125
705.14	2940
705.584	3756
706.027	3024
706.471	1400
706.915	928
707.359	773
707.803	734
708.246	728
708.69	710
709.134	692
709.577	712
710.021	698
710.465	706
710.908	717
711.352	696
711.795	791
712.239	851
712.682	854
713.126	848
713.569	945
714.012	847
714.456	708
714.899	692
715.342	638
715.786	626
716.229	586
716.672	589
717.115	567
717.558	574
718.002	624
718.445	621
718.888	658
719.331	665
719.774	701
720.217	699
720.66	664
721.103	619
721.546	602
721.989	565
722.432	563
722.874	564
723.317	553
723.76	576
724.203	668
724.645	877
725.088	1120
725.531	1150
725.974	1154
726.416	1224
726.859	802
727.301	604
727.744	564
728.187	555
728.629	570
729.071	574
729.514	608
729.956	647
730.399	659
730.841	654
731.283	644
731.726	623
732.168	648
732.61	684
733.053	675
733.495	794
733.937	833
734.379	924
734.821	1122
735.263	1606
735.705	2770
736.148	4572
736.59	5455
737.032	5051
737.474	5441
737.916	2483
738.357	1162
738.799	790
739.241	706
739.683	684
740.125	718
740.567	690
741.008	723
741.45	789
741.892	821
742.334	839
742.775	796
743.217	825
743.658	720
744.1	654
744.542	758
744.983	832
745.425	794
745.866	871
746.307	744
746.749	722
747.19	920
747.632	1580
748.073	3043
748.514	4912
748.956	6030
749.397	8226
749.838	6621
750.279	5384
750.72	3873
751.162	1676
751.603	868
752.044	661
752.485	564
752.926	529
753.367	501
753.808	488
754.249	462
754.69	482
755.131	468
755.572	481
756.013	486
756.453	494
756.894	469
757.335	510
757.776	488
758.216	499
758.657	516
759.098	557
759.538	628
759.979	812
760.42	1278
760.86	3051
761.301	7306
761.741	10768
762.182	11070
762.622	10246
763.063	4549
763.503	1750
763.943	904
764.384	644
764.824	552
765.264	528
765.705	490
766.145	491
766.585	471
767.025	441
767.465	444
767.906	431
768.346	458
768.786	503
769.226	629
769.666	1054
770.106	2332
770.546	4340
770.986	4708
771.426	4538
771.866	2388
772.306	1070
772.745	583
773.185	470
773.625	423
774.065	432
774.505	518
774.944	745
775.384	1170
775.824	1342
776.263	1369
776.703	947
777.142	566
777.582	396
778.021	366
778.461	368
778.9	358
779.34	336
779.779	335
780.219	319
780.658	332
781.097	327
781.537	326
781.976	317
782.415	317
782.855	318
783.294	305
783.733	290
784.172	307
784.611	310
785.05	294
785.489	347
785.928	344
786.367	334
786.806	326
787.245	355
787.684	370
788.123	383
788.562	361
789.001	363
789.44	346
789.879	319
790.317	341
790.756	384
791.195	375
791.634	454
792.072	700
792.511	1423
792.95	3175
793.388	4065
793.827	3528
794.265	1949
794.704	966
795.142	540
795.581	429
796.019	375
796.458	359
796.896	365
797.334	399
797.773	475
798.211	752
798.649	1516
799.087	2584
799.526	3977
799.964	4511
800.402	3659
800.84	2112
801.278	1069
801.716	564
802.154	456
802.592	414
803.03	390
803.468	428
803.906	386
804.344	394
804.782	401
805.22	370
805.658	414
806.096	412
806.533	432
806.971	506
807.409	634
807.847	1085
808.284	2581
808.722	5284
809.16	7340
809.597	10205
810.035	13080
810.472	11146
810.91	5912
811.347	2767
811.785	1272
812.222	736
812.66	555
813.097	448
813.535	417
813.972	395
814.409	354
814.846	358
815.284	324
815.721	325
816.158	305
816.595	398
817.032	468
817.47	473
817.907	404
818.344	372
818.781	340
819.218	345
819.655	464
820.092	606
820.529	618
820.966	544
821.403	413
821.839	374
822.276	344
822.713	385
823.15	408
823.587	405
824.023	530
824.46	1156
824.897	2297
825.333	2357
825.77	1386
826.206	796
826.643	483
827.08	334
827.516	294
827.953	285
828.389	264
828.825	228
829.262	238
829.698	246
830.135	236
830.571	237
831.007	210
831.443	205
831.88	238
832.316	253
832.752	214
833.188	234
833.624	240
834.06	226
834.497	240
834.933	231
835.369	252
835.805	258
836.241	254
836.677	287
837.112	306
837.548	346
837.984	416
838.42	734
838.856	1865
839.292	4082
839.727	4363
840.163	2864
840.599	3446
841.034	5160
841.47	3918
841.906	2109
842.341	1146
842.777	674
843.212	605
843.648	472
844.083	357
844.519	298
844.954	256
845.39	239
845.825	186
846.261	190
846.696	197
847.131	199
847.566	209
848.002	199
848.437	213
848.872	236
849.307	247
849.742	332
850.177	643
850.613	1494
851.048	1689
851.483	915
851.918	579
852.353	340
852.788	246
853.223	211
853.657	198
854.092	158
854.527	180
854.962	161
855.397	186
855.832	193
856.266	181
856.701	183
857.136	190
857.57	185
858.005	206
858.44	202
858.874	218
859.309	213
859.743	188
860.178	196
860.612	187
861.047	211
861.481	270
861.915	244
862.35	204
862.784	194
863.218	157
863.653	175
864.087	177
864.521	191
864.955	286
865.39	459
865.824	416
866.258	416
866.692	568
867.126	535
867.56	402
867.994	291
868.428	244
868.862	222
869.296	228
869.73	235
870.164	249
870.598	214
871.031	174
871.465	176
871.899	167
872.333	155
872.766	127
873.2	128
873.634	135
874.067	143
874.501	150
874.935	150
875.368	160
875.802	133
876.235	143
876.669	138
877.102	144
877.535	140
877.969	156
878.402	132
878.836	150
879.269	133
879.702	130
880.135	132
880.569	147
881.002	138
881.435	138
881.868	131
882.301	139
882.734	137
883.167	127
883.601	139
884.034	122
884.467	127
884.899	135
885.332	132
885.765	116
886.198	146
886.631	131
887.064	135
887.497	128
887.929	128
888.362	134
888.795	122
889.228	128
889.66	127
890.093	115
890.526	122
890.958	129
891.391	137
891.823	120
892.256	117
892.688	119
893.121	123
893.553	116
893.985	113
894.418	130
894.85	124
895.282	130
895.715	106
896.147	118
896.579	122
897.011	116
897.444	132
897.876	133
898.308	135
898.74	128
899.172	108
899.604	110
900.036	110
900.468	118
900.9	135
901.332	145
901.764	151
902.196	114
902.628	123
903.06	145
903.491	160
903.923	149
904.355	159
904.787	151
905.218	137
905.65	123
906.082	144
906.513	127
906.945	135
907.376	143
907.808	137
908.239	110
908.671	121
909.102	132
909.534	166
909.965	216
910.397	346
910.828	938
911.259	996
911.691	628
912.122	442
912.553	261
912.984	188
913.415	153
913.847	130
914.278	126
914.709	133
915.14	130
915.571	129
916.002	118
916.433	119
916.864	124
917.295	115
917.726	133
918.157	132
918.587	121
919.018	143
919.449	135
919.88	142
920.311	156
920.741	244
921.172	486
921.603	372
922.033	296
922.464	204
922.895	154
923.325	110
923.756	135
924.186	119
924.617	161
925.047	162
925.478	157
925.908	136
926.338	139
926.769	170
927.199	116
927.629	118
928.06	100
928.49	125
928.92	125
929.35	106
929.78	130
930.21	101
930.641	118
931.071	114
931.501	106
931.931	102
932.361	107
932.791	105
933.221	96
933.651	106
934.08	116
934.51	130
934.94	116
935.37	112
935.8	101
936.229	105
936.659	116
937.089	127
937.519	116
937.948	142
938.378	134
938.807	127
939.237	113
939.666	125
940.096	114
940.525	113
940.955	107
941.384	113
941.814	114
942.243	91
942.672	89
943.102	88
943.531	102
943.96	104
944.39	104
944.819	99
945.248	106
945.677	91
946.106	94
946.535	111
946.964	96
947.393	108
947.822	114
948.251	106
948.68	105
949.109	94
949.538	89
949.967	103
950.396	95
950.825	81
951.254	89
951.682	82
952.111	95
952.54	92
952.969	82
953.397	113
953.826	93
954.254	121
954.683	97
955.112	88
955.54	101
955.969	98
956.397	105
956.826	83
957.254	89
957.682	86
958.111	112
958.539	101
958.967	99
959.396	104
959.824	104
960.252	98
960.68	95
961.109	105
961.537	88
961.965	101
962.393	86
962.821	87
963.249	88
963.677	99
964.105	138
964.533	202
964.961	156
965.389	148
965.817	142
966.245	105
966.672	85
967.1	94
967.528	78
967.956	87
968.383	98
968.811	84
969.239	79
969.666	85
970.094	92
970.522	96
970.949	108
971.377	80
971.804	77
972.232	96
972.659	94
973.087	92
973.514	88
973.941	86
974.369	88
974.796	93
975.223	84
975.651	88
976.078	98
976.505	92
976.932	101
977.359	115
977.786	122
978.214	126
978.641	106
979.068	90
979.495	92
979.922	105
980.349	82
980.776	89
981.202	83
981.629	108
982.056	91
982.483	90
982.91	98
983.337	80
983.763	88
984.19	94
984.617	97
985.043	99
985.47	90
985.897	93
986.323	86
986.75	86
987.176	81
987.603	78
988.029	85
988.456	97
988.882	78
989.308	94
989.735	98
990.161	96
990.587	82
991.014	71
991.44	91
991.866	92
992.292	106
992.719	88
993.145	90
993.571	98
993.997	94
994.423	91
994.849	89
995.275	77
995.701	84
996.127	91
996.553	88
996.979	95
997.405	111
997.83	99
998.256	106
998.682	83
999.108	90
999.534	98
999.959	85
1000.385	97
1000.811	80
1001.236	102
1001.662	80
1002.087	94
1002.513	102
1002.938	82
1003.364	97
1003.789	90
1004.215	86
1004.64	95
1005.066	95
1005.491	83
1005.916	96
1006.342	88
1006.767	84
1007.192	94
1007.617	76
1008.042	99
1008.468	94
1008.893	74
1009.318	82
1009.743	105
1010.168	122
1010.593	92
1011.018	104
1011.443	96
1011.868	104
1012.293	87
1012.718	102
1013.143	82
1013.567	77
1013.992	99
1014.417	100
1014.842	100
1015.267	78
1015.691	100
1016.116	101
1016.541	90
1016.965	97
1017.39	100
1017.814	100
1018.239	93
1018.663	69
1019.088	90
1019.512	82
1019.937	106
1020.361	90
1020.785	93
1021.21	76
1021.634	75
1022.058	78
1022.483	96
1022.907	98
1023.331	76
1023.755	83
1024.179	89
1024.604	100
1025.028	82
1025.452	87
1025.876	77
1026.3	78
1026.724	79
1027.148	82
1027.572	85
1027.996	86
1028.42	89
1028.843	83
1029.267	81
1029.691	89
1030.115	74
1030.539	84
1030.962	79
1031.386	85
1031.81	74
1032.233	66
1032.657	90
1033.08	85
1033.504	88
1033.927	95
1034.351	85
1034.774	90
1035.198	95
1035.621	100
1036.045	88
1036.468	92
1036.891	61
1037.315	81
1037.738	76
1038.161	78
1038.584	104
1039.008	83
1039.431	85
1039.854	88
1040.277	74
1040.7	64
1041.123	94
1041.546	80
1041.969	70
1042.392	99
1042.815	85
1043.238	77
1043.661	99
1044.084	98
1044.507	81
1044.93	81
1045.352	82
1045.775	98
1046.198	89
1046.621	68
1047.043	104
1047.466	86
1047.889	83
1048.311	85
1048.734	92
1049.156	86
1049.579	83
1050.001	95
1050.424	79
1050.846	75
1051.269	84
1051.691	100
1052.113	84
1052.536	78
1052.958	84
1053.38	83
1053.802	81
1054.225	75
1054.647	84
1055.069	86
1055.491	82
1055.913	81
1056.335	64
1056.757	89
1057.179	94
1057.601	97
1058.023	77
1058.445	78
1058.867	87
1059.289	86
1059.711	84
1060.133	88
1060.555	87
1060.976	90
1061.398	71
1061.82	85
1062.241	89
1062.663	80
1063.085	83
1063.506	91
1063.928	72
1064.35	89
1064.771	77
1065.193	91
1065.614	78
1066.035	90
1066.457	87
1066.878	76
1067.3	110
1067.721	94
1068.142	101
1068.564	98
1068.985	80
1069.406	95
1069.827	75
1070.248	104
1070.67	85
1071.091	87
1071.512	85
1071.933	87
1072.354	92
1072.775	85
1073.196	100
1073.617	81
1074.038	86
1074.459	89
1074.88	100
1075.3	86
1075.721	66
1076.142	70
1076.563	93
1076.983	106
1077.404	77
1077.825	85
1078.246	89
1078.666	91
1079.087	82
1079.507	86
1079.928	78
1080.348	76
1080.769	83
1081.189	80
1081.61	78
1082.03	83
1082.451	81
1082.871	92
1083.291	98
1083.711	83
1084.132	87
1084.552	84
1084.972	84
1085.392	86
1085.813	83
1086.233	86
1086.653	81
1087.073	90
1087.493	88
1087.913	79
1088.333	90
1088.753	99
1089.173	94
1089.593	78
1090.013	90
1090.433	84
1090.852	87
1091.272	79
1091.692	88
1092.112	86
1092.531	88
1092.951	82
1093.371	90
1093.79	82
1094.21	97
1094.63	81
1095.049	80
1095.469	90
1095.888	68
1096.308	79
1096.727	88
1097.146	100
1097.566	83
1097.985	93
1098.405	98
1098.824	89
1099.243	104
1099.662	81
1100.082	91
1100.501	82
1100.92	88
1101.339	91
1101.758	92
