Data from 20170802-ORNL-NYSim-Air_HRD10391_10-38-18-658.txt Node
Date: Wed Aug 02 10:38:18 EDT 2017
User: Ender
Spectrometer: HR+D1039
Trigger mode: 0
Integration Time (sec): 1.100000E-3
Scans to average: 1
Electric dark correction enabled: true
Nonlinearity correction enabled: false
Boxcar width: 0
XAxis mode: Wavelengths
Number of Pixels in Spectrum: 2048
>>>>>Begin Spectral Data<<<<<
187.836	2
188.309	2
188.782	2
189.255	-13
189.728	-7
190.201	-19
190.674	-16
191.147	0
191.619	4
192.092	-15
192.565	6
193.038	20
193.511	-10
193.984	14
194.456	-1
194.929	11
195.402	6
195.874	18
196.347	15
196.82	7
197.292	20
197.765	42
198.237	54
198.71	48
199.182	31
199.655	54
200.127	52
200.6	48
201.072	56
201.544	60
202.017	71
202.489	69
202.961	63
203.433	72
203.906	69
204.378	90
204.85	74
205.322	70
205.794	90
206.266	76
206.739	82
207.211	76
207.683	74
208.155	86
208.627	74
209.099	92
209.57	69
210.042	97
210.514	90
210.986	73
211.458	83
211.93	77
212.402	92
212.873	75
213.345	100
213.817	92
214.288	87
214.76	82
215.232	89
215.703	94
216.175	75
216.646	81
217.118	75
217.589	86
218.061	77
218.532	81
219.004	72
219.475	61
219.946	80
220.418	81
220.889	86
221.36	84
221.832	74
222.303	89
222.774	84
223.245	70
223.717	98
224.188	64
224.659	70
225.13	64
225.601	82
226.072	63
226.543	71
227.014	63
227.485	79
227.956	78
228.427	79
228.898	80
229.369	73
229.839	95
230.31	85
230.781	82
231.252	79
231.722	88
232.193	78
232.664	91
233.135	83
233.605	80
234.076	76
234.546	66
235.017	76
235.487	89
235.958	88
236.428	78
236.899	82
237.369	96
237.84	78
238.31	88
238.78	84
239.251	90
239.721	99
240.191	75
240.662	98
241.132	89
241.602	88
242.072	94
242.542	85
243.013	76
243.483	90
243.953	87
244.423	84
244.893	80
245.363	82
245.833	90
246.303	85
246.773	97
247.243	83
247.712	94
248.182	86
248.652	89
249.122	100
249.592	112
250.061	128
250.531	168
251.001	139
251.471	128
251.94	112
252.41	115
252.879	96
253.349	91
253.818	91
254.288	80
254.757	100
255.227	66
255.696	84
256.166	79
256.635	92
257.105	74
257.574	72
258.043	92
258.513	115
258.982	129
259.451	109
259.92	116
260.389	118
260.859	90
261.328	101
261.797	129
262.266	118
262.735	104
263.204	108
263.673	89
264.142	87
264.611	88
265.08	86
265.549	80
266.018	86
266.487	91
266.955	100
267.424	96
267.893	93
268.362	101
268.83	103
269.299	108
269.768	88
270.236	84
270.705	88
271.174	98
271.642	105
272.111	86
272.579	98
273.048	115
273.516	125
273.985	143
274.453	118
274.922	114
275.39	100
275.858	99
276.327	95
276.795	98
277.263	112
277.731	94
278.2	128
278.668	133
279.136	113
279.604	102
280.072	86
280.54	95
281.008	89
281.477	99
281.945	98
282.413	100
282.881	96
283.348	95
283.816	94
284.284	101
284.752	124
285.22	101
285.688	90
286.156	108
286.623	148
287.091	201
287.559	143
288.026	106
288.494	103
288.962	105
289.429	86
289.897	95
290.364	95
290.832	103
291.3	108
291.767	85
292.234	103
292.702	110
293.169	100
293.637	85
294.104	104
294.571	112
295.039	90
295.506	112
295.973	94
296.44	113
296.908	108
297.375	113
297.842	111
298.309	102
298.776	100
299.243	118
299.71	121
300.177	105
300.644	101
301.111	108
301.578	114
302.045	108
302.512	98
302.979	102
303.446	94
303.913	119
304.379	106
304.846	137
305.313	115
305.78	114
306.246	125
306.713	130
307.18	124
307.646	124
308.113	134
308.579	97
309.046	112
309.512	101
309.979	110
310.445	128
310.912	107
311.378	112
311.845	115
312.311	117
312.777	100
313.244	115
313.71	115
314.176	118
314.642	132
315.109	122
315.575	124
316.041	136
316.507	119
316.973	132
317.439	126
317.905	130
318.371	117
318.837	148
319.303	144
319.769	137
320.235	129
320.701	132
321.167	134
321.633	151
322.099	168
322.564	190
323.03	171
323.496	146
323.962	132
324.427	154
324.893	135
325.359	114
325.824	118
326.29	120
326.755	124
327.221	132
327.686	137
328.152	128
328.617	132
329.083	125
329.548	133
330.014	129
330.479	128
330.944	157
331.41	163
331.875	161
332.34	158
332.805	170
333.271	163
333.736	182
334.201	186
334.666	204
335.131	184
335.596	157
336.061	157
336.526	168
336.991	162
337.456	169
337.921	137
338.386	135
338.851	129
339.316	128
339.781	118
340.246	136
340.711	135
341.175	136
341.64	137
342.105	130
342.569	138
343.034	139
343.499	157
343.963	141
344.428	141
344.893	144
345.357	159
345.822	162
346.286	138
346.751	148
347.215	142
347.679	165
348.144	162
348.608	182
349.073	154
349.537	168
350.001	158
350.465	156
350.93	161
351.394	151
351.858	168
352.322	166
352.786	162
353.25	172
353.715	164
354.179	168
354.643	177
355.107	169
355.571	180
356.035	181
356.498	188
356.962	180
357.426	176
357.89	160
358.354	169
358.818	153
359.281	170
359.745	185
360.209	176
360.673	167
361.136	160
361.6	177
362.064	182
362.527	186
362.991	183
363.454	173
363.918	174
364.381	176
364.845	178
365.308	188
365.772	173
366.235	179
366.698	194
367.162	192
367.625	216
368.088	200
368.552	175
369.015	187
369.478	185
369.941	193
370.404	186
370.867	214
371.331	198
371.794	194
372.257	199
372.72	216
373.183	232
373.646	212
374.109	209
374.572	224
375.035	244
375.497	214
375.96	208
376.423	196
376.886	190
377.349	206
377.811	198
378.274	198
378.737	198
379.199	207
379.662	213
380.125	205
380.587	214
381.05	240
381.512	233
381.975	210
382.437	235
382.9	226
383.362	227
383.825	231
384.287	250
384.75	288
385.212	267
385.674	234
386.136	233
386.599	213
387.061	237
387.523	244
387.985	263
388.447	274
388.91	260
389.372	294
389.834	265
390.296	245
390.758	272
391.22	271
391.682	315
392.144	418
392.606	399
393.068	275
393.529	242
393.991	248
394.453	258
394.915	276
395.377	301
395.838	354
396.3	262
396.762	217
397.224	215
397.685	235
398.147	229
398.608	237
399.07	223
399.531	230
399.993	248
400.454	242
400.916	250
401.377	247
401.839	255
402.3	223
402.762	257
403.223	255
403.684	249
404.145	270
404.607	261
405.068	236
405.529	235
405.99	248
406.451	243
406.913	244
407.374	238
407.835	242
408.296	262
408.757	254
409.218	281
409.679	268
410.14	284
410.601	266
411.062	278
411.522	298
411.983	309
412.444	291
412.905	289
413.366	300
413.826	280
414.287	315
414.748	379
415.208	354
415.669	321
416.13	295
416.59	288
417.051	287
417.511	308
417.972	302
418.432	354
418.893	388
419.353	364
419.814	295
420.274	264
420.734	290
421.195	274
421.655	276
422.115	294
422.576	278
423.036	265
423.496	282
423.956	303
424.416	288
424.876	340
425.336	332
425.797	347
426.257	343
426.717	322
427.177	311
427.637	332
428.097	352
428.556	358
429.016	389
429.476	356
429.936	356
430.396	370
430.856	364
431.315	361
431.775	368
432.235	399
432.694	411
433.154	376
433.614	384
434.073	396
434.533	361
434.993	356
435.452	350
435.912	317
436.371	335
436.83	328
437.29	320
437.749	315
438.209	310
438.668	321
439.127	292
439.587	316
440.046	304
440.505	299
440.964	325
441.424	344
441.883	343
442.342	302
442.801	312
443.26	313
443.719	300
444.178	309
444.637	310
445.096	296
445.555	278
446.014	315
446.473	313
446.932	280
447.391	315
447.849	311
448.308	332
448.767	300
449.226	321
449.685	315
450.143	328
450.602	336
451.061	326
451.519	345
451.978	319
452.436	337
452.895	319
453.353	330
453.812	310
454.27	315
454.729	292
455.187	323
455.646	314
456.104	311
456.562	334
457.021	331
457.479	292
457.937	328
458.395	296
458.854	307
459.312	307
459.77	324
460.228	327
460.686	335
461.144	339
461.602	341
462.06	346
462.518	345
462.976	353
463.434	318
463.892	360
464.35	324
464.808	341
465.266	338
465.724	314
466.181	356
466.639	334
467.097	370
467.555	382
468.012	393
468.47	360
468.928	381
469.385	406
469.843	390
470.3	388
470.758	383
471.215	417
471.673	437
472.13	431
472.588	418
473.045	420
473.503	426
473.96	443
474.417	443
474.875	459
475.332	474
475.789	499
476.246	490
476.704	535
477.161	542
477.618	570
478.075	584
478.532	629
478.989	662
479.446	693
479.903	748
480.36	830
480.817	874
481.274	934
481.731	1010
482.188	1078
482.645	1166
483.102	1234
483.558	1355
484.015	1380
484.472	1381
484.929	1376
485.385	1380
485.842	1297
486.299	1214
486.755	1126
487.212	1018
487.668	929
488.125	850
488.582	787
489.038	750
489.494	749
489.951	694
490.407	712
490.864	694
491.32	664
491.776	635
492.233	646
492.689	681
493.145	662
493.602	590
494.058	617
494.514	618
494.97	635
495.426	672
495.882	624
496.338	666
496.794	698
497.251	691
497.707	678
498.163	715
498.618	701
499.074	665
499.53	692
499.986	720
500.442	696
500.898	695
501.354	709
501.809	724
502.265	700
502.721	754
503.177	762
503.632	760
504.088	736
504.543	754
504.999	744
505.455	686
505.91	686
506.366	649
506.821	656
507.277	672
507.732	667
508.187	652
508.643	683
509.098	669
509.553	671
510.009	688
510.464	680
510.919	687
511.375	700
511.83	699
512.285	725
512.74	719
513.195	758
513.65	753
514.105	789
514.56	776
515.015	783
515.47	758
515.925	780
516.38	802
516.835	776
517.29	802
517.745	812
518.2	778
518.655	770
519.109	744
519.564	723
520.019	727
520.474	718
520.928	718
521.383	739
521.838	750
522.292	726
522.747	732
523.201	686
523.656	712
524.11	699
524.565	700
525.019	729
525.474	704
525.928	689
526.382	702
526.837	698
527.291	692
527.745	699
528.2	679
528.654	711
529.108	676
529.562	703
530.016	680
530.47	674
530.925	726
531.379	700
531.833	678
532.287	677
532.741	705
533.195	684
533.649	700
534.103	701
534.556	660
535.01	720
535.464	702
535.918	698
536.372	701
536.826	704
537.279	677
537.733	709
538.187	716
538.64	703
539.094	709
539.548	739
540.001	723
540.455	728
540.908	733
541.362	725
541.815	710
542.269	757
542.722	746
543.175	750
543.629	746
544.082	752
544.536	780
544.989	777
545.442	788
545.895	750
546.349	795
546.802	756
547.255	734
547.708	777
548.161	784
548.614	770
549.067	778
549.52	788
549.973	795
550.426	764
550.879	761
551.332	765
551.785	783
552.238	774
552.691	792
553.144	801
553.596	796
554.049	798
554.502	814
554.955	794
555.407	842
555.86	872
556.313	844
556.765	857
557.218	836
557.67	812
558.123	814
558.576	809
559.028	815
559.48	826
559.933	813
560.385	792
560.838	776
561.29	745
561.742	736
562.195	731
562.647	713
563.099	702
563.551	675
564.004	748
564.456	751
564.908	709
565.36	726
565.812	669
566.264	696
566.716	681
567.168	678
567.62	665
568.072	662
568.524	654
568.976	638
569.428	655
569.88	650
570.332	666
570.784	679
571.235	627
571.687	654
572.139	663
572.59	642
573.042	653
573.494	688
573.945	657
574.397	666
574.849	623
575.3	640
575.752	657
576.203	627
576.655	614
577.106	608
577.557	641
578.009	616
578.46	631
578.912	631
579.363	621
579.814	606
580.265	615
580.717	647
581.168	623
581.619	606
582.07	630
582.521	621
582.972	617
583.423	625
583.875	652
584.326	640
584.777	708
585.227	806
585.678	868
586.129	878
586.58	905
587.031	922
587.482	971
587.933	1184
588.384	1088
588.834	899
589.285	708
589.736	692
590.186	690
590.637	711
591.088	664
591.538	629
591.989	641
592.439	642
592.89	657
593.34	656
593.791	666
594.241	651
594.692	668
595.142	649
595.593	640
596.043	624
596.493	666
596.943	667
597.394	665
597.844	621
598.294	672
598.744	677
599.195	700
599.645	742
600.095	772
600.545	802
600.995	860
601.445	892
601.895	907
602.345	928
602.795	950
603.245	874
603.695	852
604.145	820
604.594	771
605.044	762
605.494	726
605.944	654
606.393	649
606.843	653
607.293	647
607.743	644
608.192	666
608.642	666
609.091	652
609.541	654
609.99	654
610.44	612
610.889	624
611.339	620
611.788	646
612.238	628
612.687	649
613.136	622
613.586	660
614.035	642
614.484	634
614.933	638
615.383	671
615.832	627
616.281	601
616.73	610
617.179	576
617.628	593
618.077	544
618.526	553
618.975	587
619.424	556
619.873	577
620.322	556
620.771	543
621.22	545
621.669	540
622.118	537
622.567	555
623.015	544
623.464	514
623.913	548
624.361	505
624.81	519
625.259	514
625.707	513
626.156	489
626.604	532
627.053	544
627.501	536
627.95	502
628.398	500
628.847	521
629.295	519
629.744	516
630.192	543
630.64	536
631.089	547
631.537	588
631.985	577
632.433	592
632.881	617
633.33	691
633.778	746
634.226	580
634.674	539
635.122	572
635.57	555
636.018	598
636.466	568
636.914	510
637.362	512
637.81	523
638.258	552
638.705	546
639.153	516
639.601	563
640.049	519
640.497	566
640.944	566
641.392	571
641.84	551
642.287	511
642.735	508
643.182	509
643.63	517
644.078	524
644.525	542
644.973	531
645.42	558
645.867	546
646.315	537
646.762	573
647.21	572
647.657	607
648.104	642
648.551	627
648.999	702
649.446	772
649.893	819
650.34	964
650.787	1144
651.234	1441
651.682	1881
652.129	2547
652.576	3722
653.023	5209
653.47	6398
653.917	7156
654.363	7537
654.81	7928
655.257	8326
655.704	6280
656.151	3766
656.598	2402
657.044	1660
657.491	1302
657.938	1086
658.385	907
658.831	845
659.278	726
659.724	671
660.171	652
660.618	578
661.064	552
661.511	521
661.957	496
662.404	502
662.85	493
663.296	493
663.743	468
664.189	459
664.635	452
665.082	453
665.528	469
665.974	450
666.42	438
666.867	444
667.313	441
667.759	467
668.205	469
668.651	481
669.097	497
669.543	508
669.989	524
670.435	431
670.881	418
671.327	434
671.773	472
672.219	500
672.665	504
673.11	549
673.556	544
674.002	534
674.448	580
674.893	494
675.339	427
675.785	387
676.23	400
676.676	368
677.122	383
677.567	353
678.013	348
678.458	364
678.904	359
679.349	348
679.794	356
680.24	338
680.685	330
681.131	338
681.576	338
682.021	345
682.466	352
682.912	333
683.357	363
683.802	360
684.247	423
684.692	418
685.137	461
685.583	458
686.028	504
686.473	456
686.918	397
687.363	378
687.807	378
688.252	338
688.697	343
689.142	336
689.587	344
690.032	342
690.477	346
690.921	356
691.366	357
691.811	355
692.255	409
692.7	448
693.145	561
693.589	807
694.034	1041
694.478	1206
694.923	1123
695.367	1296
695.812	1160
696.256	546
696.701	376
697.145	354
697.59	330
698.034	324
698.478	324
698.922	332
699.367	299
699.811	328
700.255	354
700.699	371
701.143	412
701.588	430
702.032	447
702.476	459
702.92	450
703.364	525
703.808	742
704.252	980
704.696	1122
705.14	1037
705.584	1298
706.027	1016
706.471	507
706.915	400
707.359	353
707.803	322
708.246	326
708.69	330
709.134	301
709.577	313
710.021	322
710.465	306
710.908	315
711.352	324
711.795	322
712.239	348
712.682	369
713.126	371
713.569	393
714.012	361
714.456	320
714.899	317
715.342	290
715.786	262
716.229	264
716.672	265
717.115	277
717.558	280
718.002	281
718.445	275
718.888	309
719.331	306
719.774	326
720.217	318
720.66	283
721.103	293
721.546	282
721.989	282
722.432	257
722.874	260
723.317	272
723.76	261
724.203	290
724.645	350
725.088	441
725.531	466
725.974	444
726.416	472
726.859	329
727.301	266
727.744	260
728.187	279
728.629	274
729.071	274
729.514	278
729.956	276
730.399	314
730.841	290
731.283	293
731.726	280
732.168	295
732.61	294
733.053	294
733.495	330
733.937	346
734.379	398
734.821	451
735.263	610
735.705	1002
736.148	1558
736.59	1811
737.032	1643
737.474	1831
737.916	893
738.357	476
738.799	348
739.241	307
739.683	299
740.125	314
740.567	315
741.008	317
741.45	327
741.892	307
742.334	341
742.775	336
743.217	356
743.658	308
744.1	262
744.542	292
744.983	319
745.425	332
745.866	350
746.307	328
746.749	310
747.19	383
747.632	597
748.073	1080
748.514	1669
748.956	1990
749.397	2636
749.838	2139
750.279	1763
750.72	1306
751.162	614
751.603	343
752.044	273
752.485	269
752.926	230
753.367	238
753.808	240
754.249	249
754.69	224
755.131	215
755.572	216
756.013	206
756.453	214
756.894	234
757.335	210
757.776	235
758.216	197
758.657	229
759.098	252
759.538	264
759.979	326
760.42	492
760.86	1064
761.301	2416
761.741	3508
762.182	3583
762.622	3318
763.063	1546
763.503	705
763.943	560
764.384	762
764.824	864
765.264	878
765.705	587
766.145	353
766.585	250
767.025	273
767.465	392
767.906	592
768.346	638
768.786	672
769.226	470
769.666	481
770.106	880
770.546	1465
770.986	1581
771.426	1530
771.866	874
772.306	425
772.745	258
773.185	222
773.625	229
774.065	241
774.505	265
774.944	408
775.384	655
775.824	746
776.263	734
776.703	509
777.142	284
777.582	209
778.021	207
778.461	207
778.9	218
779.34	202
779.779	185
780.219	180
780.658	161
781.097	194
781.537	169
781.976	174
782.415	155
782.855	195
783.294	158
783.733	180
784.172	160
784.611	169
785.05	158
785.489	160
785.928	182
786.367	186
786.806	180
787.245	197
787.684	184
788.123	188
788.562	181
789.001	194
789.44	170
789.879	142
790.317	160
790.756	172
791.195	206
791.634	195
792.072	263
792.511	530
792.95	1112
793.388	1379
793.827	1229
794.265	714
794.704	380
795.142	260
795.581	185
796.019	179
796.458	173
796.896	204
797.334	186
797.773	212
798.211	303
798.649	563
799.087	909
799.526	1344
799.964	1524
800.402	1292
800.84	729
801.278	384
801.716	264
802.154	196
802.592	204
803.03	201
803.468	181
803.906	181
804.344	185
804.782	212
805.22	201
805.658	212
806.096	188
806.533	202
806.971	237
807.409	288
807.847	439
808.284	959
808.722	1736
809.16	2410
809.597	3367
810.035	4274
810.472	3535
810.91	1896
811.347	949
811.785	463
812.222	316
812.66	233
813.097	200
813.535	159
813.972	184
814.409	186
814.846	158
815.284	160
815.721	158
816.158	176
816.595	186
817.032	214
817.47	202
817.907	208
818.344	176
818.781	174
819.218	176
819.655	197
820.092	244
820.529	258
820.966	234
821.403	204
821.839	178
822.276	167
822.713	187
823.15	180
823.587	191
824.023	249
824.46	443
824.897	833
825.333	859
825.77	501
826.206	321
826.643	189
827.08	184
827.516	143
827.953	154
828.389	128
828.825	125
829.262	143
829.698	141
830.135	133
830.571	125
831.007	143
831.443	134
831.88	134
832.316	137
832.752	127
833.188	127
833.624	117
834.06	150
834.497	145
834.933	152
835.369	112
835.805	129
836.241	138
836.677	144
837.112	152
837.548	183
837.984	212
838.42	313
838.856	706
839.292	1372
839.727	1458
840.163	973
840.599	1153
841.034	1721
841.47	1338
841.906	738
842.341	431
842.777	312
843.212	319
843.648	269
844.083	203
844.519	162
844.954	152
845.39	142
845.825	144
846.261	131
846.696	120
847.131	130
847.566	124
848.002	121
848.437	120
848.872	123
849.307	144
849.742	160
850.177	280
850.613	550
851.048	600
851.483	364
851.918	251
852.353	174
852.788	133
853.223	143
853.657	141
854.092	133
854.527	107
854.962	124
855.397	114
855.832	134
856.266	125
856.701	120
857.136	106
857.57	127
858.005	136
858.44	121
858.874	123
859.309	126
859.743	124
860.178	126
860.612	133
861.047	116
861.481	149
861.915	142
862.35	121
862.784	111
863.218	96
863.653	107
864.087	124
864.521	118
864.955	149
865.39	201
865.824	193
866.258	193
866.692	246
867.126	231
867.56	167
867.994	143
868.428	128
868.862	137
869.296	115
869.73	146
870.164	144
870.598	143
871.031	135
871.465	103
871.899	110
872.333	101
872.766	107
873.2	116
873.634	105
874.067	109
874.501	99
874.935	120
875.368	89
875.802	113
876.235	88
876.669	104
877.102	93
877.535	102
877.969	100
878.402	116
878.836	90
879.269	93
879.702	100
880.135	96
880.569	94
881.002	115
881.435	98
881.868	110
882.301	99
882.734	103
883.167	101
883.601	100
884.034	96
884.467	107
884.899	99
885.332	98
885.765	88
886.198	106
886.631	105
887.064	106
887.497	114
887.929	109
888.362	110
888.795	104
889.228	107
889.66	107
890.093	102
890.526	109
890.958	104
891.391	89
891.823	101
892.256	97
892.688	100
893.121	82
893.553	100
893.985	113
894.418	108
894.85	91
895.282	95
895.715	91
896.147	112
896.579	105
897.011	97
897.444	101
897.876	92
898.308	78
898.74	110
899.172	110
899.604	90
900.036	82
900.468	100
900.9	119
901.332	108
901.764	111
902.196	88
902.628	109
903.06	90
903.491	109
903.923	100
904.355	115
904.787	113
905.218	107
905.65	104
906.082	112
906.513	96
906.945	118
907.376	100
907.808	101
908.239	98
908.671	98
909.102	106
909.534	106
909.965	124
910.397	174
910.828	355
911.259	400
911.691	272
912.122	205
912.553	123
912.984	113
913.415	107
913.847	106
914.278	92
914.709	110
915.14	115
915.571	115
916.002	110
916.433	107
916.864	106
917.295	86
917.726	108
918.157	112
918.587	113
919.018	106
919.449	113
919.88	96
920.311	123
920.741	129
921.172	209
921.603	192
922.033	153
922.464	131
922.895	102
923.325	105
923.756	106
924.186	86
924.617	120
925.047	124
925.478	120
925.908	92
926.338	116
926.769	115
927.199	110
927.629	105
928.06	90
928.49	87
928.92	92
929.35	97
929.78	73
930.21	88
930.641	104
931.071	116
931.501	82
931.931	103
932.361	89
932.791	88
933.221	94
933.651	112
934.08	118
934.51	84
934.94	98
935.37	91
935.8	81
936.229	98
936.659	79
937.089	84
937.519	100
937.948	91
938.378	85
938.807	99
939.237	101
939.666	76
940.096	92
940.525	85
940.955	85
941.384	97
941.814	75
942.243	96
942.672	70
943.102	95
943.531	84
943.96	101
944.39	76
944.819	88
945.248	74
945.677	68
946.106	110
946.535	88
946.964	103
947.393	91
947.822	72
948.251	87
948.68	97
949.109	94
949.538	78
949.967	80
950.396	88
950.825	82
951.254	99
951.682	77
952.111	86
952.54	95
952.969	86
953.397	66
953.826	81
954.254	83
954.683	95
955.112	88
955.54	85
955.969	80
956.397	88
956.826	70
957.254	88
957.682	81
958.111	72
958.539	96
958.967	78
959.396	80
959.824	87
960.252	79
960.68	83
961.109	85
961.537	92
961.965	80
962.393	80
962.821	82
963.249	85
963.677	77
964.105	98
964.533	118
964.961	118
965.389	104
965.817	92
966.245	79
966.672	93
967.1	79
967.528	98
967.956	87
968.383	80
968.811	78
969.239	76
969.666	74
970.094	78
970.522	89
970.949	84
971.377	72
971.804	78
972.232	93
972.659	94
973.087	79
973.514	72
973.941	78
974.369	94
974.796	92
975.223	73
975.651	90
976.078	59
976.505	82
976.932	88
977.359	104
977.786	99
978.214	86
978.641	94
979.068	92
979.495	90
979.922	81
980.349	96
980.776	82
981.202	92
981.629	88
982.056	88
982.483	89
982.91	91
983.337	90
983.763	85
984.19	72
984.617	84
985.043	88
985.47	74
985.897	72
986.323	97
986.75	77
987.176	73
987.603	88
988.029	92
988.456	88
988.882	76
989.308	77
989.735	94
990.161	84
990.587	79
991.014	80
991.44	89
991.866	98
992.292	83
992.719	75
993.145	96
993.571	75
993.997	79
994.423	87
994.849	91
995.275	84
995.701	90
996.127	91
996.553	85
996.979	100
997.405	85
997.83	79
998.256	74
998.682	88
999.108	81
999.534	88
999.959	91
1000.385	84
1000.811	76
1001.236	74
1001.662	80
1002.087	102
1002.513	80
1002.938	100
1003.364	75
1003.789	100
1004.215	87
1004.64	88
1005.066	84
1005.491	77
1005.916	77
1006.342	84
1006.767	82
1007.192	69
1007.617	77
1008.042	89
1008.468	84
1008.893	73
1009.318	72
1009.743	90
1010.168	100
1010.593	81
1011.018	60
1011.443	83
1011.868	71
1012.293	69
1012.718	83
1013.143	79
1013.567	89
1013.992	82
1014.417	88
1014.842	87
1015.267	89
1015.691	86
1016.116	70
1016.541	84
1016.965	78
1017.39	87
1017.814	56
1018.239	78
1018.663	90
1019.088	83
1019.512	68
1019.937	69
1020.361	94
1020.785	85
1021.21	80
1021.634	85
1022.058	80
1022.483	78
1022.907	84
1023.331	81
1023.755	77
1024.179	81
1024.604	85
1025.028	74
1025.452	81
1025.876	90
1026.3	82
1026.724	94
1027.148	76
1027.572	92
1027.996	90
1028.42	101
1028.843	95
1029.267	72
1029.691	92
1030.115	93
1030.539	88
1030.962	88
1031.386	80
1031.81	83
1032.233	79
1032.657	86
1033.08	96
1033.504	62
1033.927	90
1034.351	89
1034.774	86
1035.198	92
1035.621	78
1036.045	94
1036.468	82
1036.891	89
1037.315	82
1037.738	86
1038.161	87
1038.584	73
1039.008	74
1039.431	73
1039.854	86
1040.277	81
1040.7	80
1041.123	76
1041.546	95
1041.969	86
1042.392	76
1042.815	88
1043.238	86
1043.661	96
1044.084	91
1044.507	85
1044.93	84
1045.352	81
1045.775	83
1046.198	65
1046.621	77
1047.043	78
1047.466	79
1047.889	84
1048.311	84
1048.734	73
1049.156	95
1049.579	73
1050.001	78
1050.424	100
1050.846	86
1051.269	82
1051.691	77
1052.113	81
1052.536	78
1052.958	63
1053.38	80
1053.802	70
1054.225	71
1054.647	68
1055.069	70
1055.491	86
1055.913	90
1056.335	100
1056.757	74
1057.179	75
1057.601	83
1058.023	79
1058.445	76
1058.867	76
1059.289	91
1059.711	81
1060.133	90
1060.555	79
1060.976	86
1061.398	90
1061.82	94
1062.241	85
1062.663	78
1063.085	95
1063.506	90
1063.928	85
1064.35	73
1064.771	89
1065.193	76
1065.614	68
1066.035	69
1066.457	90
1066.878	85
1067.3	82
1067.721	94
1068.142	91
1068.564	65
1068.985	106
1069.406	58
1069.827	76
1070.248	86
1070.67	106
1071.091	68
1071.512	80
1071.933	81
1072.354	90
1072.775	76
1073.196	77
1073.617	90
1074.038	75
1074.459	86
1074.88	80
1075.3	80
1075.721	83
1076.142	87
1076.563	74
1076.983	86
1077.404	79
1077.825	88
1078.246	81
1078.666	88
1079.087	87
1079.507	86
1079.928	82
1080.348	77
1080.769	73
1081.189	86
1081.61	78
1082.03	97
1082.451	92
1082.871	77
1083.291	87
1083.711	75
1084.132	80
1084.552	88
1084.972	70
1085.392	94
1085.813	84
1086.233	76
1086.653	86
1087.073	82
1087.493	79
1087.913	72
1088.333	82
1088.753	85
1089.173	74
1089.593	76
1090.013	89
1090.433	72
1090.852	72
1091.272	80
1091.692	77
1092.112	72
1092.531	92
1092.951	93
1093.371	77
1093.79	88
1094.21	88
1094.63	75
1095.049	87
1095.469	84
1095.888	80
1096.308	76
1096.727	67
1097.146	68
1097.566	64
1097.985	69
1098.405	91
1098.824	72
1099.243	82
1099.662	89
1100.082	76
1100.501	84
1100.92	96
1101.339	77
1101.758	82
